File: Feb25/CV02.11.25/2ndsecondelectrode-1.1CV_650_FLiNaK_Ni_02_11_25_200mVperS_sh15.csv
Segment,Point,Elapsed Time (s),Potential (V),Current (A),Frequency (Hz),|Z| (ohms),Zre (ohms),Zim (ohms),Phase of Z (deg),ActionId
0,0,0.00551,-0.00122653,-2.00991e-05,0,0,0,0,-0.002284039,38
0,11,0.06612,-0.0128814,-0.000389456,0,0,0,0,-0.002284039,38
0,21,0.12122,-0.0236161,-0.000487295,0,0,0,0,-0.002284039,38
0,31,0.17632,-0.0349642,-0.000548636,0,0,0,0,-0.002284039,38
0,41,0.23142,-0.0460057,-0.000593477,0,0,0,0,-0.002284039,38
0,51,0.28652,-0.0573538,-0.000628073,0,0,0,0,-0.002284039,38
0,61,0.34162,-0.0680885,-0.000660707,0,0,0,0,-0.002284039,38
0,71,0.39672,-0.0791299,-0.000687452,0,0,0,0,-0.002284039,38
0,81,0.45182,-0.0907848,-0.00071438,0,0,0,0,-0.002284039,38
0,92,0.51243,-0.101826,-0.000746462,0,0,0,0,-0.002284039,38
0,102,0.56753,-0.113174,-0.000779586,0,0,0,0,-0.002284039,38
0,112,0.62263,-0.124216,-0.00080995,0,0,0,0,-0.002284039,38
0,122,0.67773,-0.13495,-0.000839271,0,0,0,0,-0.002284039,38
0,132,0.73283,-0.146299,-0.000876015,0,0,0,0,-0.002284039,38
0,142,0.78793,-0.15734,-0.000912513,0,0,0,0,-0.002284039,38
0,153,0.84854,-0.169302,-0.000950483,0,0,0,0,-0.002284039,38
0,163,0.90364,-0.180343,-0.000990048,0,0,0,0,-0.002284039,38
0,173,0.95874,-0.191691,-0.00103053,0,0,0,0,-0.002284039,38
0,183,1.01384,-0.202733,-0.00106764,0,0,0,0,-0.002284039,38
0,193,1.06894,-0.214081,-0.00110819,0,0,0,0,-0.002284039,38
0,203,1.12404,-0.224202,-0.00114481,0,0,0,0,-0.002284039,38
0,213,1.17914,-0.235243,-0.00118425,0,0,0,0,-0.002284039,38
0,223,1.23424,-0.245978,-0.00122038,0,0,0,0,-0.002284039,38
0,233,1.28934,-0.257633,-0.001264,0,0,0,0,-0.002284039,38
0,243,1.34444,-0.268981,-0.00129951,0,0,0,0,-0.002284039,38
0,253,1.39954,-0.279409,-0.0013435,0,0,0,0,-0.002284039,38
0,263,1.45464,-0.290757,-0.00137435,0,0,0,0,-0.002284039,38
0,273,1.50974,-0.301185,-0.00141852,0,0,0,0,-0.002284039,38
0,283,1.56484,-0.312533,-0.00144998,0,0,0,0,-0.002284039,38
0,293,1.61994,-0.323268,-0.00148826,0,0,0,0,-0.002284039,38
0,304,1.68055,-0.335843,-0.00152415,0,0,0,0,-0.002284039,38
0,314,1.73565,-0.346885,-0.00156647,0,0,0,0,-0.002284039,38
0,324,1.79075,-0.357619,-0.00159371,0,0,0,0,-0.002284039,38
0,334,1.84585,-0.368967,-0.00162806,0,0,0,0,-0.002284039,38
0,344,1.90095,-0.379395,-0.00166137,0,0,0,0,-0.002284039,38
0,354,1.95605,-0.390744,-0.00169241,0,0,0,0,-0.002284039,38
0,365,2.01666,-0.403625,-0.00172124,0,0,0,0,-0.002284039,38
0,375,2.07176,-0.414053,-0.00174792,0,0,0,0,-0.002284039,38
0,385,2.12686,-0.425401,-0.00178153,0,0,0,0,-0.002284039,38
0,395,2.18196,-0.436136,-0.0017973,0,0,0,0,-0.002284039,38
0,405,2.23706,-0.446871,-0.00182981,0,0,0,0,-0.002284039,38
0,415,2.29216,-0.457912,-0.00185005,0,0,0,0,-0.002284039,38
0,425,2.34726,-0.468647,-0.00187213,0,0,0,0,-0.002284039,38
0,435,2.40236,-0.479995,-0.00189115,0,0,0,0,-0.002284039,38
0,445,2.45746,-0.491037,-0.00191691,0,0,0,0,-0.002284039,38
0,456,2.51807,-0.502998,-0.00193961,0,0,0,0,-0.002284039,38
0,466,2.57317,-0.513733,-0.00196537,0,0,0,0,-0.002284039,38
0,476,2.62827,-0.524774,-0.00198316,0,0,0,0,-0.002284039,38
0,486,2.68337,-0.536122,-0.0020077,0,0,0,0,-0.002284039,38
0,496,2.73847,-0.547164,-0.0020261,0,0,0,0,-0.002284039,38
0,506,2.79357,-0.557899,-0.00205309,0,0,0,0,-0.002284039,38
0,517,2.85418,-0.570167,-0.0020807,0,0,0,0,-0.002284039,38
0,527,2.90928,-0.581208,-0.0020991,0,0,0,0,-0.002284039,38
0,537,2.96438,-0.59225,-0.00212731,0,0,0,0,-0.002284039,38
0,547,3.01948,-0.603291,-0.00215369,0,0,0,0,-0.002284039,38
0,557,3.07458,-0.614026,-0.00218314,0,0,0,0,-0.002284039,38
0,567,3.12968,-0.625374,-0.00221135,0,0,0,0,-0.002284039,38
0,577,3.18478,-0.636415,-0.00224816,0,0,0,0,-0.002284039,38
0,588,3.24539,-0.648377,-0.00228189,0,0,0,0,-0.002284039,38
0,598,3.30049,-0.659418,-0.00232361,0,0,0,0,-0.002284039,38
0,608,3.35559,-0.67046,-0.00235612,0,0,0,0,-0.002284039,38
0,618,3.41069,-0.681501,-0.0024009,0,0,0,0,-0.002284039,38
0,628,3.46579,-0.692543,-0.00244506,0,0,0,0,-0.002284039,38
0,638,3.52089,-0.703584,-0.00248923,0,0,0,0,-0.002284039,38
0,648,3.57599,-0.714625,-0.00253094,0,0,0,0,-0.002284039,38
0,658,3.63109,-0.725667,-0.00257817,0,0,0,0,-0.002284039,38
0,669,3.6917,-0.737628,-0.00263951,0,0,0,0,-0.002284039,38
0,679,3.7468,-0.748977,-0.00269411,0,0,0,0,-0.002284039,38
0,689,3.8019,-0.759405,-0.00275177,0,0,0,0,-0.002284039,38
0,699,3.857,-0.770446,-0.0028082,0,0,0,0,-0.002284039,38
0,709,3.9121,-0.781181,-0.00286464,0,0,0,0,-0.002284039,38
0,719,3.9672,-0.792836,-0.00291739,0,0,0,0,-0.002284039,38
0,730,4.02781,-0.805104,-0.00297321,0,0,0,0,-0.002284039,38
0,740,4.08291,-0.815839,-0.00301124,0,0,0,0,-0.002284039,38
0,750,4.13801,-0.82688,-0.00304989,0,0,0,0,-0.002284039,38
0,760,4.19311,-0.837921,-0.00307749,0,0,0,0,-0.002284039,38
0,770,4.24821,-0.848963,-0.00310816,0,0,0,0,-0.002284039,38
0,780,4.30331,-0.860004,-0.00314803,0,0,0,0,-0.002284039,38
0,790,4.35841,-0.870739,-0.00317441,0,0,0,0,-0.002284039,38
0,801,4.41902,-0.883007,-0.0032106,0,0,0,0,-0.002284039,38
0,811,4.47412,-0.894049,-0.00324311,0,0,0,0,-0.002284039,38
0,821,4.52922,-0.90509,-0.00327992,0,0,0,0,-0.002284039,38
0,831,4.58432,-0.916438,-0.00331365,0,0,0,0,-0.002284039,38
0,841,4.63942,-0.926866,-0.00335475,0,0,0,0,-0.002284039,38
0,851,4.69452,-0.938214,-0.00338849,0,0,0,0,-0.002284039,38
0,861,4.74962,-0.949256,-0.00343204,0,0,0,0,-0.002284039,38
0,871,4.80472,-0.960297,-0.00346639,0,0,0,0,-0.002284039,38
0,882,4.86533,-0.972259,-0.00351976,0,0,0,0,-0.002284039,38
0,892,4.92043,-0.982687,-0.00354859,0,0,0,0,-0.002284039,38
0,902,4.97553,-0.994648,-0.00358846,0,0,0,0,-0.002284039,38
0,912,5.03063,-1.00538,-0.00361239,0,0,0,0,-0.002284039,38
0,922,5.08573,-1.01642,-0.00363631,0,0,0,0,-0.002284039,38
0,932,5.14083,-1.02685,-0.00366085,0,0,0,0,-0.002284039,38
0,943,5.20144,-1.03912,-0.00368416,0,0,0,0,-0.002284039,38
0,953,5.25654,-1.05078,-0.00370747,0,0,0,0,-0.002284039,38
0,963,5.31164,-1.06151,-0.00372587,0,0,0,0,-0.002284039,38
0,973,5.36674,-1.07255,-0.0037504,0,0,0,0,-0.002284039,38
0,983,5.42184,-1.08329,-0.00376206,0,0,0,0,-0.002284039,38
0,993,5.47694,-1.09525,-0.00379825,0,0,0,0,-0.002284039,38
1,1003,5.568068,-1.09034,-0.00344799,0,0,0,0,-0.002284039,38
1,1013,5.713238,-1.0609,-0.00323391,0,0,0,0,-0.002284039,38
1,1023,5.858408,-1.03237,-0.00304559,0,0,0,0,-0.002284039,38
1,1033,6.003578,-1.00354,-0.00288365,0,0,0,0,-0.002284039,38
1,1043,6.148748,-0.974406,-0.00273398,0,0,0,0,-0.002284039,38
1,1053,6.293918,-0.945269,-0.00257204,0,0,0,0,-0.002284039,38
1,1063,6.439088,-0.916438,-0.00241071,0,0,0,0,-0.002284039,38
1,1073,6.584258,-0.887915,-0.00224018,0,0,0,0,-0.002284039,38
1,1083,6.729428,-0.858777,-0.0020488,0,0,0,0,-0.002284039,38
1,1093,6.874598,-0.829334,-0.00184821,0,0,0,0,-0.002284039,38
1,1103,7.019768,-0.800503,-0.00163474,0,0,0,0,-0.002284039,38
1,1113,7.164938,-0.771673,-0.00144704,0,0,0,0,-0.002284039,38
1,1123,7.310108,-0.741922,-0.00130221,0,0,0,0,-0.002284039,38
1,1133,7.455278,-0.713092,-0.00115174,0,0,0,0,-0.002284039,38
1,1144,7.614965,-0.681501,-0.00100753,0,0,0,0,-0.002284039,38
1,1154,7.760135,-0.652057,-0.000914844,0,0,0,0,-0.002284039,38
1,1164,7.905305,-0.623534,-0.000835039,0,0,0,0,-0.002284039,38
1,1174,8.050475,-0.59409,-0.000793695,0,0,0,0,-0.002284039,38
1,1184,8.195645,-0.566486,-0.000792897,0,0,0,0,-0.002284039,38
1,1194,8.340815,-0.536429,-0.000794247,0,0,0,0,-0.002284039,38
1,1204,8.485985,-0.506985,-0.00073358,0,0,0,0,-0.002284039,38
1,1214,8.631155,-0.478462,-0.000627828,0,0,0,0,-0.002284039,38
1,1224,8.776325,-0.449018,-0.000498214,0,0,0,0,-0.002284039,38
1,1234,8.921495,-0.420187,-0.000365839,0,0,0,0,-0.002284039,38
1,1244,9.066665,-0.390744,-0.00024696,0,0,0,0,-0.002284039,38
1,1254,9.211835,-0.362527,-0.00015869,0,0,0,0,-0.002284039,38
1,1264,9.357005,-0.332776,-7.8253e-05,0,0,0,0,-0.002284039,38
1,1274,9.502175,-0.303946,2.01009e-06,0,0,0,0,-0.002284039,38
1,1284,9.647345,-0.275422,9.58212e-05,0,0,0,0,-0.002284039,38
1,1294,9.792515,-0.245978,0.000178632,0,0,0,0,-0.002284039,38
1,1304,9.937685,-0.217455,0.000251622,0,0,0,0,-0.002284039,38
1,1314,10.0829,-0.188011,0.000314803,0,0,0,0,-0.002284039,38
1,1325,10.2425,-0.156113,0.000375225,0,0,0,0,-0.002284039,38
1,1335,10.3877,-0.126669,0.000424298,0,0,0,0,-0.002284039,38
1,1345,10.5329,-0.0981457,0.000494288,0,0,0,0,-0.002284039,38
1,1355,10.6781,-0.0690086,0.00059636,0,0,0,0,-0.002284039,38
1,1365,10.8232,-0.0401782,0.000759405,0,0,0,0,-0.002284039,38
1,1375,10.9684,-0.0110411,0.00105832,0,0,0,0,-0.002284039,38
1,1385,11.1136,0.018096,0.00157604,0,0,0,0,-0.002284039,38
1,1395,11.2587,0.0469264,0.0024604,0,0,0,0,-0.002284039,38
1,1405,11.4039,0.0757568,0.0038737,0,0,0,0,-0.002284039,38
1,1415,11.5491,0.104894,0.00607463,0,0,0,0,-0.002284039,38
1,1425,11.6942,0.133111,0.00874788,0,0,0,0,-0.002284039,38
1,1435,11.8394,0.161635,0.0108746,0,0,0,0,-0.002284039,38
1,1445,11.9846,0.191078,0.011115,0,0,0,0,-0.002284039,38
1,1455,12.1298,0.220215,0.00872396,0,0,0,0,-0.002284039,38
1,1465,12.2749,0.249659,0.00594029,0,0,0,0,-0.002284039,38
1,1475,12.4201,0.278796,0.00550599,0,0,0,0,-0.002284039,38
1,1485,12.5653,0.307933,0.00571639,0,0,0,0,-0.002284039,38
1,1495,12.7104,0.336764,0.00615805,0,0,0,0,-0.002284039,38
1,1506,12.8701,0.368355,0.00669049,0,0,0,0,-0.002284039,38
1,1516,13.0153,0.397798,0.00715239,0,0,0,0,-0.002284039,38
1,1526,13.1605,0.426629,0.00757319,0,0,0,0,-0.002284039,38
1,1536,13.3056,0.455766,0.00790198,0,0,0,0,-0.002284039,38
1,1546,13.4508,0.48429,0.00818661,0,0,0,0,-0.002284039,38
1,1556,13.596,0.513427,0.00835775,0,0,0,0,-0.002284039,38
1,1566,13.7411,0.542564,0.00839026,0,0,0,0,-0.002284039,38
1,1576,13.8863,0.571394,0.00852092,0,0,0,0,-0.002284039,38
1,1586,14.0315,0.600225,0.00848902,0,0,0,0,-0.002284039,38
1,1596,14.1766,0.629362,0.00839333,0,0,0,0,-0.002284039,38
1,1606,14.3218,0.658192,0.00840007,0,0,0,0,-0.002284039,38
1,1616,14.467,0.687329,0.00843565,0,0,0,0,-0.002284039,38
1,1626,14.6122,0.71616,0.00847246,0,0,0,0,-0.002284039,38
1,1636,14.7573,0.745603,0.00850374,0,0,0,0,-0.002284039,38
1,1646,14.9025,0.774434,0.00876199,0,0,0,0,-0.002284039,38
1,1656,15.0477,0.803264,0.00928155,0,0,0,0,-0.002284039,38
1,1666,15.1928,0.832401,0.00998391,0,0,0,0,-0.002284039,38
1,1676,15.338,0.861538,0.0107967,0,0,0,0,-0.002284039,38
1,1686,15.4832,0.890675,0.0114352,0,0,0,0,-0.002284039,38
1,1696,15.6283,0.919199,0.0125388,0,0,0,0,-0.002284039,38
1,1706,15.7735,0.947723,0.0138361,0,0,0,0,-0.002284039,38
1,1716,15.9187,0.977167,0.0150403,0,0,0,0,-0.002284039,38
1,1726,16.0639,1.006,0.016134,0,0,0,0,-0.002284039,38
1,1736,16.209,1.03483,0.0169253,0,0,0,0,-0.002284039,38
1,1746,16.3542,1.06427,0.0175994,0,0,0,0,-0.002284039,38
1,1756,16.4994,1.09126,0.0180773,0,0,0,0,-0.002284039,38
1,1766,16.6445,1.12101,0.0202794,0,0,0,0,-0.002284039,38
1,1776,16.7897,1.14862,0.0242359,0,0,0,0,-0.002284039,38
1,1786,16.9349,1.17683,0.0292352,0,0,0,0,-0.002284039,38
1,1796,17.08,1.20505,0.0347314,0,0,0,0,-0.002284039,38
1,1806,17.2252,1.23265,0.0404423,0,0,0,0,-0.002284039,38
1,1816,17.3704,1.26087,0.0467666,0,0,0,0,-0.002284039,38
1,1827,17.5301,1.29277,0.0531522,0,0,0,0,-0.002284039,38
1,1837,17.6752,1.32006,0.05909,0,0,0,0,-0.002284039,38
1,1847,17.8204,1.34828,0.064574,0,0,0,0,-0.002284039,38
1,1857,17.9656,1.3765,0.0700456,0,0,0,0,-0.002284039,38
1,1867,18.1108,1.4038,0.0750694,0,0,0,0,-0.002284039,38
1,1877,18.2559,1.43263,0.0800994,0,0,0,0,-0.002284039,38
1,1887,18.4011,1.46054,0.084835,0,0,0,0,-0.002284039,38
1,1897,18.5463,1.48875,0.0896073,0,0,0,0,-0.002284039,38
1,1907,18.6914,1.51728,0.0948827,0,0,0,0,-0.002284039,38
1,1917,18.8366,1.54549,0.0986368,0,0,0,0,-0.002284039,38
1,1927,18.9818,1.57708,0.0829457,0,0,0,0,-0.002284039,38
1,1937,19.1269,1.6142,0.0349891,0,0,0,0,-0.002284039,38
1,1947,19.2721,1.64487,0.0268797,0,0,0,0,-0.002284039,38
1,1957,19.4173,1.67247,0.0378476,0,0,0,0,-0.002284039,38
1,1967,19.5625,1.69793,0.0554709,0,0,0,0,-0.002284039,38
1,1977,19.7076,1.7243,0.0698738,0,0,0,0,-0.002284039,38
1,1987,19.8528,1.75129,0.0842093,0,0,0,0,-0.002284039,38
1,1997,19.998,1.77951,0.0890614,0,0,0,0,-0.002284039,38
1,2008,20.1577,1.7562,0.0968272,0,0,0,0,-0.002284039,38
1,2018,20.3028,1.72768,0.091466,0,0,0,0,-0.002284039,38
1,2028,20.448,1.70038,0.0819765,0,0,0,0,-0.002284039,38
1,2038,20.5932,1.67216,0.0745051,0,0,0,0,-0.002284039,38
1,2048,20.7383,1.64548,0.0602065,0,0,0,0,-0.002284039,38
1,2058,20.8835,1.61788,0.0540171,0,0,0,0,-0.002284039,38
1,2068,21.0287,1.59027,0.0460918,0,0,0,0,-0.002284039,38
1,2078,21.1738,1.56267,0.0363018,0,0,0,0,-0.002284039,38
1,2088,21.319,1.53599,0.0241071,0,0,0,0,-0.002284039,38
1,2098,21.4642,1.50961,0.0114095,0,0,0,0,-0.002284039,38
1,2108,21.6094,1.48262,-0.0044638,0,0,0,0,-0.002284039,38
1,2118,21.7545,1.45624,-0.0194881,0,0,0,0,-0.002284039,38
1,2128,21.8997,1.42895,-0.0300143,0,0,0,0,-0.002284039,38
1,2138,22.0449,1.40257,-0.0442639,0,0,0,0,-0.002284039,38
1,2148,22.19,1.37588,-0.0592311,0,0,0,0,-0.002284039,38
1,2158,22.3352,1.34889,-0.0719472,0,0,0,0,-0.002284039,38
1,2168,22.4804,1.32221,-0.0824488,0,0,0,0,-0.002284039,38
1,2178,22.6255,1.29399,-0.0905458,0,0,0,0,-0.002284039,38
1,2188,22.7707,1.26516,-0.0918279,0,0,0,0,-0.002284039,38
1,2198,22.9159,1.23419,-0.0765968,0,0,0,0,-0.002284039,38
1,2208,23.0611,1.20106,-0.0508274,0,0,0,0,-0.002284039,38
1,2218,23.2062,1.16947,-0.0404178,0,0,0,0,-0.002284039,38
1,2228,23.3514,1.13972,-0.0362588,0,0,0,0,-0.002284039,38
1,2238,23.4966,1.10936,-0.0300327,0,0,0,0,-0.002284039,38
1,2248,23.6417,1.07961,-0.0239722,0,0,0,0,-0.002284039,38
1,2258,23.7869,1.05047,-0.0195617,0,0,0,0,-0.002284039,38
1,2268,23.9321,1.02041,-0.0162186,0,0,0,0,-0.002284039,38
1,2278,24.0772,0.990048,-0.0136865,0,0,0,0,-0.002284039,38
1,2288,24.2224,0.960911,-0.0116064,0,0,0,0,-0.002284039,38
1,2298,24.3676,0.932081,-0.00996366,0,0,0,0,-0.002284039,38
1,2308,24.5128,0.902637,-0.00860004,0,0,0,0,-0.002284039,38
1,2319,24.67244,0.870433,-0.00734071,0,0,0,0,-0.002284039,38
1,2329,24.81761,0.840989,-0.0063433,0,0,0,0,-0.002284039,38
1,2339,24.96278,0.811852,-0.00541153,0,0,0,0,-0.002284039,38
1,2349,25.10795,0.782408,-0.00465396,0,0,0,0,-0.002284039,38
1,2359,25.25312,0.754191,-0.00399148,0,0,0,0,-0.002284039,38
1,2369,25.39829,0.725054,-0.00346455,0,0,0,0,-0.002284039,38
1,2379,25.54346,0.695917,-0.00298855,0,0,0,0,-0.002284039,38
1,2389,25.68863,0.666473,-0.00260946,0,0,0,0,-0.002284039,38
1,2399,25.8338,0.637336,-0.00232729,0,0,0,0,-0.002284039,38
1,2409,25.97897,0.608506,-0.00205125,0,0,0,0,-0.002284039,38
1,2419,26.12414,0.579369,-0.00180773,0,0,0,0,-0.002284039,38
1,2429,26.26931,0.551458,-0.00156604,0,0,0,0,-0.002284039,38
1,2439,26.41448,0.520788,-0.00141882,0,0,0,0,-0.002284039,38
1,2449,26.55965,0.492571,-0.00163904,0,0,0,0,-0.002284039,38
1,2459,26.70482,0.46282,-0.00168915,0,0,0,0,-0.002284039,38
1,2469,26.84999,0.434296,-0.0016556,0,0,0,0,-0.002284039,38
1,2479,26.99516,0.405466,-0.00160874,0,0,0,0,-0.002284039,38
1,2489,27.14033,0.376022,-0.00158279,0,0,0,0,-0.002284039,38
1,2500,27.3,0.343818,-0.00156647,0,0,0,0,-0.002284039,38
1,2510,27.4452,0.315294,-0.00156463,0,0,0,0,-0.002284039,38
1,2520,27.5904,0.286464,-0.00158058,0,0,0,0,-0.002284039,38
1,2530,27.7355,0.257327,-0.00158616,0,0,0,0,-0.002284039,38
1,2540,27.8807,0.22819,-0.00159113,0,0,0,0,-0.002284039,38
1,2550,28.0259,0.199666,-0.00159843,0,0,0,0,-0.002284039,38
1,2560,28.171,0.170222,-0.00160677,0,0,0,0,-0.002284039,38
1,2570,28.3162,0.141085,-0.00162297,0,0,0,0,-0.002284039,38
1,2580,28.4614,0.111948,-0.00163922,0,0,0,0,-0.002284039,38
1,2590,28.6065,0.0837311,-0.00167486,0,0,0,0,-0.002284039,38
1,2600,28.7517,0.0542873,-0.00171142,0,0,0,0,-0.002284039,38
1,2610,28.8969,0.0251502,-0.0017719,0,0,0,0,-0.002284039,38
1,2620,29.0421,-0.00337348,-0.0018384,0,0,0,0,-0.002284039,38
1,2630,29.1872,-0.0328173,-0.00190771,0,0,0,0,-0.002284039,38
1,2640,29.3324,-0.0619544,-0.00198684,0,0,0,0,-0.002284039,38
1,2650,29.4776,-0.0907848,-0.00206168,0,0,0,0,-0.002284039,38
1,2660,29.6227,-0.119615,-0.0021267,0,0,0,0,-0.002284039,38
1,2670,29.7679,-0.149059,-0.00220583,0,0,0,0,-0.002284039,38
1,2681,29.9276,-0.18065,-0.00229355,0,0,0,0,-0.002284039,38
1,2691,30.0728,-0.20948,-0.002369,0,0,0,0,-0.002284039,38
1,2701,30.2179,-0.238924,-0.00245304,0,0,0,0,-0.002284039,38
1,2711,30.3631,-0.267754,-0.00253953,0,0,0,0,-0.002284039,38
1,2721,30.5083,-0.296891,-0.00262479,0,0,0,0,-0.002284039,38
1,2731,30.6534,-0.325722,-0.00271742,0,0,0,0,-0.002284039,38
1,2741,30.7986,-0.354859,-0.00281311,0,0,0,0,-0.002284039,38
1,2751,30.9438,-0.383996,-0.00291555,0,0,0,0,-0.002284039,38
1,2761,31.089,-0.413133,-0.00301615,0,0,0,0,-0.002284039,38
1,2771,31.2341,-0.441657,-0.00314435,0,0,0,0,-0.002284039,38
1,2781,31.3793,-0.470794,-0.00326581,0,0,0,0,-0.002284039,38
1,2791,31.5245,-0.499931,-0.00339647,0,0,0,0,-0.002284039,38
1,2801,31.6696,-0.529068,-0.00352958,0,0,0,0,-0.002284039,38
1,2811,31.8148,-0.557899,-0.0036498,0,0,0,0,-0.002284039,38
1,2821,31.96,-0.587036,-0.0037731,0,0,0,0,-0.002284039,38
1,2831,32.1051,-0.615559,-0.00389578,0,0,0,0,-0.002284039,38
1,2841,32.2503,-0.64531,-0.00402951,0,0,0,0,-0.002284039,38
1,2851,32.3955,-0.67414,-0.00417795,0,0,0,0,-0.002284039,38
1,2861,32.5407,-0.703277,-0.00434296,0,0,0,0,-0.002284039,38
1,2871,32.6858,-0.731494,-0.00453619,0,0,0,0,-0.002284039,38
1,2881,32.831,-0.760938,-0.0047472,0,0,0,0,-0.002284039,38
1,2891,32.9762,-0.790075,-0.0049895,0,0,0,0,-0.002284039,38
1,2901,33.1213,-0.818906,-0.00528516,0,0,0,0,-0.002284039,38
1,2911,33.2665,-0.848349,-0.00560782,0,0,0,0,-0.002284039,38
1,2921,33.4117,-0.876873,-0.0060096,0,0,0,0,-0.002284039,38
1,2931,33.5568,-0.905704,-0.00647334,0,0,0,0,-0.002284039,38
1,2941,33.702,-0.934534,-0.00703216,0,0,0,0,-0.002284039,38
1,2951,33.8472,-0.963671,-0.00770201,0,0,0,0,-0.002284039,38
1,2961,33.9924,-0.992808,-0.00850497,0,0,0,0,-0.002284039,38
1,2971,34.1375,-1.02164,-0.00948459,0,0,0,0,-0.002284039,38
1,2981,34.2827,-1.05047,-0.0107022,0,0,0,0,-0.002284039,38
1,2991,34.4279,-1.07961,-0.0122591,0,0,0,0,-0.002284039,38
2,3002,34.5876,-1.09034,-0.0125204,0,0,0,0,-0.002284039,38
2,3012,34.7327,-1.0612,-0.0109218,0,0,0,0,-0.002284039,38
2,3022,34.8779,-1.03237,-0.00952568,0,0,0,0,-0.002284039,38
2,3032,35.0231,-1.00385,-0.00824795,0,0,0,0,-0.002284039,38
2,3042,35.1682,-0.974712,-0.00712417,0,0,0,0,-0.002284039,38
2,3052,35.3134,-0.945882,-0.00614701,0,0,0,0,-0.002284039,38
2,3062,35.4586,-0.916745,-0.00534589,0,0,0,0,-0.002284039,38
2,3072,35.6037,-0.887915,-0.00471776,0,0,0,0,-0.002284039,38
2,3082,35.7489,-0.859391,-0.00423377,0,0,0,0,-0.002284039,38
2,3092,35.8941,-0.829947,-0.00387063,0,0,0,0,-0.002284039,38
2,3102,36.0393,-0.800503,-0.00357926,0,0,0,0,-0.002284039,38
2,3112,36.1844,-0.77198,-0.00334617,0,0,0,0,-0.002284039,38
2,3122,36.3296,-0.743456,-0.00314619,0,0,0,0,-0.002284039,38
2,3132,36.4748,-0.713705,-0.00295972,0,0,0,0,-0.002284039,38
2,3142,36.6199,-0.684875,-0.00278551,0,0,0,0,-0.002284039,38
2,3152,36.7651,-0.655738,-0.00261007,0,0,0,0,-0.002284039,38
2,3162,36.9103,-0.626907,-0.00244016,0,0,0,0,-0.002284039,38
2,3172,37.0554,-0.59777,-0.0022684,0,0,0,0,-0.002284039,38
2,3183,37.2151,-0.56618,-0.00207211,0,0,0,0,-0.002284039,38
2,3193,37.3603,-0.536736,-0.00189483,0,0,0,0,-0.002284039,38
2,3203,37.5055,-0.507905,-0.00170651,0,0,0,0,-0.002284039,38
2,3213,37.6506,-0.478462,-0.00151452,0,0,0,0,-0.002284039,38
2,3223,37.7958,-0.449631,-0.00132387,0,0,0,0,-0.002284039,38
2,3233,37.941,-0.421108,-0.00114303,0,0,0,0,-0.002284039,38
2,3243,38.0861,-0.391357,-0.000985141,0,0,0,0,-0.002284039,38
2,3253,38.2313,-0.362527,-0.000821666,0,0,0,0,-0.002284039,38
2,3263,38.3765,-0.334003,-0.000699413,0,0,0,0,-0.002284039,38
2,3273,38.5217,-0.305173,-0.000614026,0,0,0,0,-0.002284039,38
2,3283,38.6668,-0.275422,-0.000514899,0,0,0,0,-0.002284039,38
2,3293,38.812,-0.246898,-0.000355841,0,0,0,0,-0.002284039,38
2,3303,38.9572,-0.218068,-0.000114414,0,0,0,0,-0.002284039,38
2,3313,39.1023,-0.188931,0.000142569,0,0,0,0,-0.002284039,38
2,3323,39.2475,-0.1601,0.000356025,0,0,0,0,-0.002284039,38
2,3333,39.3927,-0.131577,0.000522444,0,0,0,0,-0.002284039,38
2,3343,39.5378,-0.101826,0.000603843,0,0,0,0,-0.002284039,38
2,3353,39.683,-0.0726891,0.000620406,0,0,0,0,-0.002284039,38
2,3363,39.8282,-0.043552,0.000649788,0,0,0,0,-0.002284039,38
2,3373,39.9734,-0.0147216,0.000718122,0,0,0,0,-0.002284039,38
2,3383,40.1185,0.0141088,0.000801853,0,0,0,0,-0.002284039,38
2,3393,40.2637,0.0429392,0.000917972,0,0,0,0,-0.002284039,38
2,3403,40.4089,0.072383,0.00106335,0,0,0,0,-0.002284039,38
2,3413,40.554,0.100907,0.00120689,0,0,0,0,-0.002284039,38
2,3423,40.6992,0.130044,0.00132436,0,0,0,0,-0.002284039,38
2,3433,40.8444,0.158567,0.00140662,0,0,0,0,-0.002284039,38
2,3443,40.9895,0.188625,0.00152206,0,0,0,0,-0.002284039,38
2,3453,41.1347,0.217148,0.00164211,0,0,0,0,-0.002284039,38
2,3463,41.2799,0.246592,0.00173768,0,0,0,0,-0.002284039,38
2,3473,41.4251,0.274809,0.00182245,0,0,0,0,-0.002284039,38
2,3483,41.5702,0.303946,0.00190219,0,0,0,0,-0.002284039,38
2,3493,41.7154,0.333697,0.00199052,0,0,0,0,-0.002284039,38
2,3504,41.8751,0.364981,0.00211995,0,0,0,0,-0.002284039,38
2,3514,42.0203,0.394118,0.00224693,0,0,0,0,-0.002284039,38
2,3524,42.1654,0.423562,0.00242482,0,0,0,0,-0.002284039,38
2,3534,42.3106,0.452085,0.00272049,0,0,0,0,-0.002284039,38
2,3544,42.4558,0.481836,0.0031646,0,0,0,0,-0.002284039,38
2,3554,42.6009,0.510053,0.00385653,0,0,0,0,-0.002284039,38
2,3564,42.7461,0.53919,0.00482817,0,0,0,0,-0.002284039,38
2,3574,42.8913,0.56802,0.00560169,0,0,0,0,-0.002284039,38
2,3584,43.0364,0.596851,0.00601758,0,0,0,0,-0.002284039,38
2,3594,43.1816,0.625681,0.00627951,0,0,0,0,-0.002284039,38
2,3604,43.3268,0.655125,0.00640832,0,0,0,0,-0.002284039,38
2,3614,43.472,0.683955,0.0066862,0,0,0,0,-0.002284039,38
2,3624,43.6171,0.712786,0.00706406,0,0,0,0,-0.002284039,38
2,3634,43.7623,0.741923,0.00760632,0,0,0,0,-0.002284039,38
2,3644,43.9075,0.770753,0.00823568,0,0,0,0,-0.002284039,38
2,3654,44.0526,0.79989,0.0089454,0,0,0,0,-0.002284039,38
2,3664,44.1978,0.828414,0.00978455,0,0,0,0,-0.002284039,38
2,3674,44.343,0.857244,0.0107899,0,0,0,0,-0.002284039,38
2,3685,44.5027,0.889142,0.0120223,0,0,0,0,-0.002284039,38
2,3695,44.6478,0.917972,0.0130399,0,0,0,0,-0.002284039,38
2,3705,44.793,0.947416,0.0140453,0,0,0,0,-0.002284039,38
2,3715,44.9382,0.976247,0.0147182,0,0,0,0,-0.002284039,38
2,3725,45.0833,1.00538,0.0149538,0,0,0,0,-0.002284039,38
2,3735,45.2285,1.03391,0.0151286,0,0,0,0,-0.002284039,38
2,3745,45.3737,1.06335,0.0149936,0,0,0,0,-0.002284039,38
2,3755,45.5189,1.09218,0.015128,0,0,0,0,-0.002284039,38
2,3765,45.664,1.12132,0.0153635,0,0,0,0,-0.002284039,38
2,3775,45.8092,1.15015,0.0156322,0,0,0,0,-0.002284039,38
2,3785,45.9544,1.17929,0.0158978,0,0,0,0,-0.002284039,38
2,3795,46.0995,1.2075,0.0158831,0,0,0,0,-0.002284039,38
2,3805,46.2447,1.23725,0.015953,0,0,0,0,-0.002284039,38
2,3815,46.3899,1.26608,0.0159825,0,0,0,0,-0.002284039,38
2,3825,46.535,1.29553,0.0160708,0,0,0,0,-0.002284039,38
2,3835,46.6802,1.32374,0.0162499,0,0,0,0,-0.002284039,38
2,3845,46.8254,1.35319,0.0165585,0,0,0,0,-0.002284039,38
2,3855,46.9706,1.38171,0.017148,0,0,0,0,-0.002284039,38
2,3866,47.1302,1.4133,0.0181288,0,0,0,0,-0.002284039,38
2,3876,47.2754,1.44183,0.01985,0,0,0,0,-0.002284039,38
2,3886,47.4206,1.47004,0.02442,0,0,0,0,-0.002284039,38
2,3896,47.5657,1.49826,0.0301002,0,0,0,0,-0.002284039,38
2,3906,47.7109,1.52586,0.0359153,0,0,0,0,-0.002284039,38
2,3916,47.8561,1.55408,0.0421905,0,0,0,0,-0.002284039,38
2,3926,48.0013,1.58199,0.0488338,0,0,0,0,-0.002284039,38
2,3936,48.1464,1.6099,0.0558512,0,0,0,0,-0.002284039,38
2,3946,48.2916,1.63781,0.0627767,0,0,0,0,-0.002284039,38
2,3956,48.4368,1.66572,0.070156,0,0,0,0,-0.002284039,38
2,3966,48.5819,1.69271,0.0781242,0,0,0,0,-0.002284039,38
2,3976,48.7271,1.72062,0.0864544,0,0,0,0,-0.002284039,38
2,3986,48.8723,1.74884,0.0950728,0,0,0,0,-0.002284039,38
2,3996,49.0174,1.77583,0.104127,0,0,0,0,-0.002284039,38
2,4006,49.1626,1.76049,0.0923309,0,0,0,0,-0.002284039,38
2,4016,49.3078,1.73412,0.0770876,0,0,0,0,-0.002284039,38
2,4026,49.453,1.70743,0.0624515,0,0,0,0,-0.002284039,38
2,4036,49.5981,1.68136,0.048386,0,0,0,0,-0.002284039,38
2,4046,49.7433,1.65376,0.0354307,0,0,0,0,-0.002284039,38
2,4056,49.8885,1.62677,0.0240764,0,0,0,0,-0.002284039,38
2,4066,50.0336,1.59978,0.013857,0,0,0,0,-0.002284039,38
2,4076,50.1788,1.57279,0.00275545,0,0,0,0,-0.002284039,38
2,4086,50.324,1.54519,-0.0102268,0,0,0,0,-0.002284039,38
2,4096,50.4691,1.51881,-0.0216841,0,0,0,0,-0.002284039,38
2,4106,50.6143,1.4909,-0.0312166,0,0,0,0,-0.002284039,38
2,4116,50.7595,1.46299,-0.0370195,0,0,0,0,-0.002284039,38
2,4126,50.9047,1.43477,-0.0401908,0,0,0,0,-0.002284039,38
2,4136,51.0498,1.40594,-0.0402337,0,0,0,0,-0.002284039,38
2,4146,51.195,1.37619,-0.0351363,0,0,0,0,-0.002284039,38
2,4156,51.3402,1.34521,-0.0264626,0,0,0,0,-0.002284039,38
2,4166,51.4853,1.31485,-0.0194452,0,0,0,0,-0.002284039,38
2,4176,51.6305,1.28479,-0.0148998,0,0,0,0,-0.002284039,38
2,4187,51.7902,1.25228,-0.0116303,0,0,0,0,-0.002284039,38
2,4197,51.9354,1.22253,-0.0093662,0,0,0,0,-0.002284039,38
2,4207,52.0805,1.19309,-0.00741432,0,0,0,0,-0.002284039,38
2,4217,52.2257,1.16426,-0.00590287,0,0,0,0,-0.002284039,38
2,4227,52.3709,1.13512,-0.00470242,0,0,0,0,-0.002284039,38
2,4237,52.516,1.1066,-0.0037044,0,0,0,0,-0.002284039,38
2,4247,52.6612,1.07654,-0.00283151,0,0,0,0,-0.002284039,38
2,4257,52.8064,1.04802,-0.00208254,0,0,0,0,-0.002284039,38
2,4267,52.9516,1.01827,-0.00141514,0,0,0,0,-0.002284039,38
2,4277,53.0967,0.989435,-0.000858655,0,0,0,0,-0.002284039,38
2,4287,53.2419,0.960911,-0.000412888,0,0,0,0,-0.002284039,38
2,4297,53.3871,0.931161,-4.81222e-05,0,0,0,0,-0.002284039,38
2,4307,53.5322,0.90233,0.000247819,0,0,0,0,-0.002284039,38
2,4317,53.6774,0.873807,-2.41071e-05,0,0,0,0,-0.002284039,38
2,4327,53.8226,0.84467,-0.000510911,0,0,0,0,-0.002284039,38
2,4337,53.9677,0.815226,-0.00054882,0,0,0,0,-0.002284039,38
2,4347,54.1129,0.786395,-0.000498582,0,0,0,0,-0.002284039,38
2,4357,54.2581,0.757565,-0.000447484,0,0,0,0,-0.002284039,38
2,4368,54.4178,0.725361,-0.00038964,0,0,0,0,-0.002284039,38
2,4378,54.5629,0.69653,-0.000328544,0,0,0,0,-0.002284039,38
2,4388,54.7081,0.667393,-0.000284991,0,0,0,0,-0.002284039,38
2,4398,54.8533,0.638256,-0.000251131,0,0,0,0,-0.002284039,38
2,4408,54.9985,0.609119,-0.00021905,0,0,0,0,-0.002284039,38
2,4418,55.1436,0.580595,-0.000201506,0,0,0,0,-0.002284039,38
2,4428,55.2888,0.551458,-0.000197335,0,0,0,0,-0.002284039,38
2,4438,55.434,0.522628,-0.00019666,0,0,0,0,-0.002284039,38
2,4448,55.5791,0.493798,-0.00020488,0,0,0,0,-0.002284039,38
2,4458,55.7243,0.46466,-0.000213774,0,0,0,0,-0.002284039,38
2,4468,55.8695,0.43491,-0.000240335,0,0,0,0,-0.002284039,38
2,4478,56.0146,0.406693,-0.000272048,0,0,0,0,-0.002284039,38
2,4488,56.1598,0.376942,-0.00031327,0,0,0,0,-0.002284039,38
2,4498,56.305,0.348419,-0.000357436,0,0,0,0,-0.002284039,38
2,4508,56.4502,0.318668,-0.000408471,0,0,0,0,-0.002284039,38
2,4518,56.5953,0.289838,-0.000472696,0,0,0,0,-0.002284039,38
2,4528,56.7405,0.260701,-0.000540232,0,0,0,0,-0.002284039,38
2,4538,56.8857,0.232177,-0.000622982,0,0,0,0,-0.002284039,38
2,4548,57.0308,0.203653,-0.000701989,0,0,0,0,-0.002284039,38
2,4558,57.176,0.174516,-0.000789094,0,0,0,0,-0.002284039,38
2,4568,57.3212,0.145072,-0.00091104,0,0,0,0,-0.002284039,38
2,4578,57.4663,0.116242,-0.00101133,0,0,0,0,-0.002284039,38
2,4588,57.6115,0.0874116,-0.00113377,0,0,0,0,-0.002284039,38
2,4598,57.7567,0.0576611,-0.0012624,0,0,0,0,-0.002284039,38
2,4608,57.9019,0.0288307,-0.00140281,0,0,0,0,-0.002284039,38
2,4618,58.047,0.000307,-0.00155034,0,0,0,0,-0.002284039,38
2,4628,58.1922,-0.0291368,-0.00168817,0,0,0,0,-0.002284039,38
2,4638,58.3374,-0.0579672,-0.00183226,0,0,0,0,-0.002284039,38
2,4648,58.4825,-0.0871043,-0.00195495,0,0,0,0,-0.002284039,38
2,4658,58.6277,-0.115935,-0.00207456,0,0,0,0,-0.002284039,38
2,4668,58.7729,-0.144765,-0.00219234,0,0,0,0,-0.002284039,38
2,4678,58.918,-0.174209,-0.00230643,0,0,0,0,-0.002284039,38
2,4689,59.07773,-0.206106,-0.00243341,0,0,0,0,-0.002284039,38
2,4699,59.2229,-0.234937,-0.00254259,0,0,0,0,-0.002284039,38
2,4709,59.36807,-0.264074,-0.00264994,0,0,0,0,-0.002284039,38
2,4719,59.51324,-0.293211,-0.00275484,0,0,0,0,-0.002284039,38
2,4729,59.65841,-0.322041,-0.00285973,0,0,0,0,-0.002284039,38
2,4739,59.80358,-0.350565,-0.00295788,0,0,0,0,-0.002284039,38
2,4749,59.94875,-0.380009,-0.00306216,0,0,0,0,-0.002284039,38
2,4759,60.09392,-0.409453,-0.00315907,0,0,0,0,-0.002284039,38
2,4769,60.23909,-0.437976,-0.0032609,0,0,0,0,-0.002284039,38
2,4779,60.38426,-0.467113,-0.00337193,0,0,0,0,-0.002284039,38
2,4789,60.52943,-0.496251,-0.0034805,0,0,0,0,-0.002284039,38
2,4799,60.6746,-0.524774,-0.00360196,0,0,0,0,-0.002284039,38
2,4809,60.81977,-0.553605,-0.0037412,0,0,0,0,-0.002284039,38
2,4819,60.96494,-0.583355,-0.00388536,0,0,0,0,-0.002284039,38
2,4829,61.11011,-0.612186,-0.00403196,0,0,0,0,-0.002284039,38
2,4839,61.25528,-0.641016,-0.004162,0,0,0,0,-0.002284039,38
2,4849,61.40045,-0.670153,-0.00430738,0,0,0,0,-0.002284039,38
2,4859,61.54562,-0.698983,-0.00444785,0,0,0,0,-0.002284039,38
2,4870,61.7053,-0.731188,-0.00461409,0,0,0,0,-0.002284039,38
2,4880,61.8505,-0.760631,-0.00479321,0,0,0,0,-0.002284039,38
2,4890,61.9956,-0.788848,-0.00500422,0,0,0,0,-0.002284039,38
2,4900,62.1408,-0.818292,-0.00524345,0,0,0,0,-0.002284039,38
2,4910,62.286,-0.846816,-0.00552194,0,0,0,0,-0.002284039,38
2,4920,62.4312,-0.875646,-0.00585441,0,0,0,0,-0.002284039,38
2,4930,62.5763,-0.90509,-0.00625435,0,0,0,0,-0.002284039,38
2,4940,62.7215,-0.934227,-0.00673527,0,0,0,0,-0.002284039,38
2,4950,62.8667,-0.962751,-0.00732905,0,0,0,0,-0.002284039,38
2,4960,63.0118,-0.991888,-0.00803325,0,0,0,0,-0.002284039,38
2,4970,63.157,-1.02041,-0.00890491,0,0,0,0,-0.002284039,38
2,4980,63.3022,-1.04986,-0.0100011,0,0,0,0,-0.002284039,38
2,4990,63.4473,-1.07869,-0.0113751,0,0,0,0,-0.002284039,38
3,5000,63.5925,-1.09402,-0.0122032,0,0,0,0,-0.002284039,38
3,5010,63.7377,-1.06519,-0.0108525,0,0,0,0,-0.002284039,38
3,5020,63.8829,-1.03667,-0.00960727,0,0,0,0,-0.002284039,38
3,5030,64.028,-1.00692,-0.00840743,0,0,0,0,-0.002284039,38
3,5040,64.1732,-0.978086,-0.00730452,0,0,0,0,-0.002284039,38
3,5051,64.3329,-0.946495,-0.0062746,0,0,0,0,-0.002284039,38
3,5061,64.4781,-0.917665,-0.00554525,0,0,0,0,-0.002284039,38
3,5071,64.6232,-0.888835,-0.00497232,0,0,0,0,-0.002284039,38
3,5081,64.7684,-0.859698,-0.00451962,0,0,0,0,-0.002284039,38
3,5091,64.9136,-0.831174,-0.004162,0,0,0,0,-0.002284039,38
3,5101,65.0587,-0.802037,-0.00386205,0,0,0,0,-0.002284039,38
3,5111,65.2039,-0.772593,-0.00361668,0,0,0,0,-0.002284039,38
3,5121,65.3491,-0.743763,-0.00341855,0,0,0,0,-0.002284039,38
3,5131,65.4942,-0.714625,-0.00323698,0,0,0,0,-0.002284039,38
3,5141,65.6394,-0.686102,-0.0030597,0,0,0,0,-0.002284039,38
3,5151,65.7846,-0.656965,-0.00287875,0,0,0,0,-0.002284039,38
3,5161,65.9298,-0.628441,-0.00268736,0,0,0,0,-0.002284039,38
3,5171,66.0749,-0.598997,-0.00249659,0,0,0,0,-0.002284039,38
3,5181,66.2201,-0.56986,-0.00229478,0,0,0,0,-0.002284039,38
3,5191,66.3653,-0.54103,-0.00208376,0,0,0,0,-0.002284039,38
3,5201,66.5104,-0.511893,-0.00186968,0,0,0,0,-0.002284039,38
3,5211,66.6556,-0.483062,-0.00165315,0,0,0,0,-0.002284039,38
3,5221,66.8008,-0.453925,-0.00144459,0,0,0,0,-0.002284039,38
3,5231,66.9459,-0.424788,-0.00124277,0,0,0,0,-0.002284039,38
3,5241,67.0911,-0.395651,-0.00104065,0,0,0,0,-0.002284039,38
3,5251,67.2363,-0.366514,-0.000851049,0,0,0,0,-0.002284039,38
3,5261,67.3815,-0.33799,-0.000724195,0,0,0,0,-0.002284039,38
3,5271,67.5266,-0.308853,-0.000657333,0,0,0,0,-0.002284039,38
3,5281,67.6718,-0.279716,-0.000473923,0,0,0,0,-0.002284039,38
3,5291,67.817,-0.250885,-0.000189913,0,0,0,0,-0.002284039,38
3,5301,67.9621,-0.221135,0.000104667,0,0,0,0,-0.002284039,38
3,5311,68.1073,-0.192611,0.000354491,0,0,0,0,-0.002284039,38
3,5321,68.2525,-0.163474,0.000539558,0,0,0,0,-0.002284039,38
3,5331,68.3976,-0.13495,0.000690764,0,0,0,0,-0.002284039,38
3,5341,68.5428,-0.105507,0.000825531,0,0,0,0,-0.002284039,38
3,5351,68.688,-0.0772897,0.000934534,0,0,0,0,-0.002284039,38
3,5362,68.8477,-0.0447788,0.000931651,0,0,0,0,-0.002284039,38
3,5372,68.9928,-0.0162551,0.000916377,0,0,0,0,-0.002284039,38
3,5382,69.138,0.0131887,0.00098238,0,0,0,0,-0.002284039,38
3,5392,69.2832,0.0417124,0.0010885,0,0,0,0,-0.002284039,38
3,5402,69.4284,0.0717696,0.0012194,0,0,0,0,-0.002284039,38
3,5412,69.5735,0.0999866,0.00135754,0,0,0,0,-0.002284039,38
3,5422,69.7187,0.12943,0.00149114,0,0,0,0,-0.002284039,38
3,5432,69.8639,0.158261,0.00163646,0,0,0,0,-0.002284039,38
3,5442,70.009,0.187705,0.00175491,0,0,0,0,-0.002284039,38
3,5452,70.1542,0.215922,0.00187582,0,0,0,0,-0.002284039,38
3,5462,70.2994,0.244445,0.0019801,0,0,0,0,-0.002284039,38
3,5472,70.4445,0.274196,0.00208438,0,0,0,0,-0.002284039,38
3,5482,70.5897,0.303026,0.0021862,0,0,0,0,-0.002284039,38
3,5492,70.7349,0.33247,0.00227883,0,0,0,0,-0.002284039,38
3,5502,70.8801,0.361914,0.0023782,0,0,0,0,-0.002284039,38
3,5512,71.0252,0.390437,0.00249966,0,0,0,0,-0.002284039,38
3,5522,71.1704,0.419268,0.00264258,0,0,0,0,-0.002284039,38
3,5532,71.3156,0.448405,0.00284317,0,0,0,0,-0.002284039,38
3,5543,71.4752,0.479996,0.00311491,0,0,0,0,-0.002284039,38
3,5553,71.6204,0.509133,0.00357865,0,0,0,0,-0.002284039,38
3,5563,71.7656,0.53827,0.00426383,0,0,0,0,-0.002284039,38
3,5573,71.9108,0.567407,0.00485823,0,0,0,0,-0.002284039,38
3,5583,72.0559,0.595624,0.00528516,0,0,0,0,-0.002284039,38
3,5593,72.2011,0.625374,0.00562683,0,0,0,0,-0.002284039,38
3,5603,72.3463,0.654512,0.00586791,0,0,0,0,-0.002284039,38
3,5613,72.4914,0.682729,0.00616725,0,0,0,0,-0.002284039,38
3,5623,72.6366,0.712172,0.00652487,0,0,0,0,-0.002284039,38
3,5633,72.7818,0.741003,0.00696469,0,0,0,0,-0.002284039,38
3,5643,72.9269,0.769526,0.00755234,0,0,0,0,-0.002284039,38
3,5653,73.0721,0.798357,0.00822586,0,0,0,0,-0.002284039,38
3,5663,73.2173,0.827801,0.0090368,0,0,0,0,-0.002284039,38
3,5673,73.3625,0.856631,0.00988269,0,0,0,0,-0.002284039,38
3,5683,73.5076,0.885462,0.0108783,0,0,0,0,-0.002284039,38
3,5693,73.6528,0.915212,0.0119284,0,0,0,0,-0.002284039,38
3,5703,73.798,0.944042,0.0130387,0,0,0,0,-0.002284039,38
3,5713,73.9431,0.972259,0.0139551,0,0,0,0,-0.002284039,38
3,5723,74.0883,1.0014,0.0144949,0,0,0,0,-0.002284039,38
3,5733,74.2335,1.03023,0.0147385,0,0,0,0,-0.002284039,38
3,5743,74.3786,1.05906,0.0148489,0,0,0,0,-0.002284039,38
3,5753,74.5238,1.08789,0.0149378,0,0,0,0,-0.002284039,38
3,5763,74.669,1.11764,0.015231,0,0,0,0,-0.002284039,38
3,5773,74.8142,1.14678,0.0155255,0,0,0,0,-0.002284039,38
3,5783,74.9593,1.17499,0.0158512,0,0,0,0,-0.002284039,38
3,5793,75.1045,1.20413,0.0162419,0,0,0,0,-0.002284039,38
3,5803,75.2497,1.23327,0.0165088,0,0,0,0,-0.002284039,38
3,5813,75.3948,1.2624,0.0161665,0,0,0,0,-0.002284039,38
3,5823,75.54,1.29123,0.0159457,0,0,0,0,-0.002284039,38
3,5833,75.6852,1.32037,0.0158813,0,0,0,0,-0.002284039,38
3,5843,75.8303,1.34889,0.016345,0,0,0,0,-0.002284039,38
3,5853,75.9755,1.37803,0.0168498,0,0,0,0,-0.002284039,38
3,5864,76.1352,1.40993,0.0174068,0,0,0,0,-0.002284039,38
3,5874,76.2804,1.43845,0.0185373,0,0,0,0,-0.002284039,38
3,5884,76.4255,1.46667,0.0217332,0,0,0,0,-0.002284039,38
3,5894,76.5707,1.49489,0.0268429,0,0,0,0,-0.002284039,38
3,5904,76.7159,1.5228,0.0327378,0,0,0,0,-0.002284039,38
3,5914,76.8611,1.5504,0.0390192,0,0,0,0,-0.002284039,38
3,5924,77.0062,1.578,0.045871,0,0,0,0,-0.002284039,38
3,5934,77.1514,1.60622,0.0531461,0,0,0,0,-0.002284039,38
3,5944,77.2966,1.63382,0.0608873,0,0,0,0,-0.002284039,38
3,5954,77.4417,1.66204,0.0690273,0,0,0,0,-0.002284039,38
3,5964,77.5869,1.68934,0.0771734,0,0,0,0,-0.002284039,38
3,5974,77.7321,1.71725,0.0857244,0,0,0,0,-0.002284039,38
3,5984,77.8772,1.74393,0.0945208,0,0,0,0,-0.002284039,38
3,5994,78.0224,1.77184,0.103654,0,0,0,0,-0.002284039,38
3,6004,78.1676,1.76326,0.0959193,0,0,0,0,-0.002284039,38
3,6014,78.3128,1.73719,0.0808478,0,0,0,0,-0.002284039,38
3,6024,78.4579,1.7105,0.0660339,0,0,0,0,-0.002284039,38
3,6034,78.6031,1.68382,0.0514408,0,0,0,0,-0.002284039,38
3,6045,78.7628,1.65468,0.0367802,0,0,0,0,-0.002284039,38
3,6055,78.908,1.62738,0.025702,0,0,0,0,-0.002284039,38
3,6065,79.0531,1.60039,0.0161634,0,0,0,0,-0.002284039,38
3,6075,79.1983,1.57279,0.00602801,0,0,0,0,-0.002284039,38
3,6085,79.3435,1.5458,-0.00678066,0,0,0,0,-0.002284039,38
3,6095,79.4886,1.51942,-0.0188563,0,0,0,0,-0.002284039,38
3,6105,79.6338,1.49151,-0.0289163,0,0,0,0,-0.002284039,38
3,6115,79.779,1.46391,-0.0351363,0,0,0,0,-0.002284039,38
3,6125,79.9241,1.43569,-0.038872,0,0,0,0,-0.002284039,38
3,6135,80.0693,1.40625,-0.0398473,0,0,0,0,-0.002284039,38
3,6145,80.2145,1.37681,-0.0360748,0,0,0,0,-0.002284039,38
3,6155,80.3597,1.34613,-0.0277631,0,0,0,0,-0.002284039,38
3,6165,80.5048,1.31608,-0.0203837,0,0,0,0,-0.002284039,38
3,6175,80.65,1.28663,-0.0154273,0,0,0,0,-0.002284039,38
3,6185,80.7952,1.25627,-0.0119769,0,0,0,0,-0.002284039,38
3,6195,80.9403,1.22683,-0.0095079,0,0,0,0,-0.002284039,38
3,6205,81.0855,1.19738,-0.00751614,0,0,0,0,-0.002284039,38
3,6215,81.2307,1.16855,-0.00596544,0,0,0,0,-0.002284039,38
3,6226,81.3904,1.13604,-0.00455827,0,0,0,0,-0.002284039,38
3,6236,81.5355,1.10721,-0.00352651,0,0,0,0,-0.002284039,38
3,6246,81.6807,1.07807,-0.00263767,0,0,0,0,-0.002284039,38
3,6256,81.8259,1.04863,-0.00187827,0,0,0,0,-0.002284039,38
3,6266,81.971,1.0198,-0.00125934,0,0,0,0,-0.002284039,38
3,6276,82.1162,0.990662,-0.000724318,0,0,0,0,-0.002284039,38
3,6286,82.2614,0.962138,-0.000292598,0,0,0,0,-0.002284039,38
3,6296,82.4065,0.932694,9.6361e-05,0,0,0,0,-0.002284039,38
3,6306,82.5517,0.90325,0.000393504,0,0,0,0,-0.002284039,38
3,6316,82.6969,0.874113,0.000625926,0,0,0,0,-0.002284039,38
3,6326,82.8421,0.84467,7.25054e-05,0,0,0,0,-0.002284039,38
3,6336,82.9872,0.816453,-0.000311368,0,0,0,0,-0.002284039,38
3,6346,83.1324,0.787315,-0.000380684,0,0,0,0,-0.002284039,38
3,6356,83.2776,0.758178,-0.000373078,0,0,0,0,-0.002284039,38
3,6366,83.4227,0.729348,-0.000307074,0,0,0,0,-0.002284039,38
3,6376,83.5679,0.700211,-0.000247328,0,0,0,0,-0.002284039,38
3,6386,83.7131,0.671074,-0.000168075,0,0,0,0,-0.002284039,38
3,6396,83.8582,0.642243,-9.63119e-05,0,0,0,0,-0.002284039,38
3,6406,84.0034,0.613413,-2.99039e-05,0,0,0,0,-0.002284039,38
3,6416,84.1486,0.583969,1.83686e-05,0,0,0,0,-0.002284039,38
3,6426,84.2938,0.554832,3.23943e-05,0,0,0,0,-0.002284039,38
3,6436,84.4389,0.526002,2.28067e-05,0,0,0,0,-0.002284039,38
3,6446,84.5841,0.496558,-8.11177e-06,0,0,0,0,-0.002284039,38
3,6456,84.7293,0.468034,-5.24222e-05,0,0,0,0,-0.002284039,38
3,6466,84.8744,0.438897,-0.000104869,0,0,0,0,-0.002284039,38
3,6476,85.0196,0.40976,-0.000167272,0,0,0,0,-0.002284039,38
3,6486,85.1648,0.38093,-0.000233342,0,0,0,0,-0.002284039,38
3,6496,85.3099,0.352406,-0.000307442,0,0,0,0,-0.002284039,38
3,6506,85.4551,0.322962,-0.0003805,0,0,0,0,-0.002284039,38
3,6516,85.6003,0.294132,-0.000456134,0,0,0,0,-0.002284039,38
3,6526,85.7455,0.264995,-0.000538024,0,0,0,0,-0.002284039,38
3,6536,85.8906,0.235857,-0.000626356,0,0,0,0,-0.002284039,38
3,6547,86.0503,0.20396,-0.000726833,0,0,0,0,-0.002284039,38
3,6557,86.1955,0.175436,-0.00082915,0,0,0,0,-0.002284039,38
3,6567,86.3407,0.145993,-0.000936558,0,0,0,0,-0.002284039,38
3,6577,86.4858,0.116549,-0.00105961,0,0,0,0,-0.002284039,38
3,6587,86.631,0.0877183,-0.00118683,0,0,0,0,-0.002284039,38
3,6597,86.7762,0.0585812,-0.00132638,0,0,0,0,-0.002284039,38
3,6607,86.9213,0.0300575,-0.00146587,0,0,0,0,-0.002284039,38
3,6617,87.0665,0.000613706,-0.00162309,0,0,0,0,-0.002284039,38
3,6627,87.2117,-0.02791,-0.00177215,0,0,0,0,-0.002284039,38
3,6637,87.3568,-0.0570471,-0.0019163,0,0,0,0,-0.002284039,38
3,6647,87.502,-0.0864909,-0.00205125,0,0,0,0,-0.002284039,38
3,6657,87.6472,-0.115321,-0.00217761,0,0,0,0,-0.002284039,38
3,6667,87.7924,-0.143845,-0.00230704,0,0,0,0,-0.002284039,38
3,6677,87.9375,-0.172982,-0.00243586,0,0,0,0,-0.002284039,38
3,6687,88.0827,-0.201812,-0.00255609,0,0,0,0,-0.002284039,38
3,6697,88.2279,-0.23095,-0.00267571,0,0,0,0,-0.002284039,38
3,6707,88.373,-0.260393,-0.00279348,0,0,0,0,-0.002284039,38
3,6717,88.5182,-0.289224,-0.00291126,0,0,0,0,-0.002284039,38
3,6728,88.6779,-0.321428,-0.0030278,0,0,0,0,-0.002284039,38
3,6738,88.8231,-0.349645,-0.0031327,0,0,0,0,-0.002284039,38
3,6748,88.9682,-0.379395,-0.00323943,0,0,0,0,-0.002284039,38
3,6758,89.1134,-0.407919,-0.00334801,0,0,0,0,-0.002284039,38
3,6768,89.2586,-0.437056,-0.00345229,0,0,0,0,-0.002284039,38
3,6778,89.4037,-0.466193,-0.00355595,0,0,0,0,-0.002284039,38
3,6788,89.5489,-0.49533,-0.00367005,0,0,0,0,-0.002284039,38
3,6798,89.6941,-0.523854,-0.00379089,0,0,0,0,-0.002284039,38
3,6808,89.8393,-0.552991,-0.00392461,0,0,0,0,-0.002284039,38
3,6818,89.9844,-0.581822,-0.00406938,0,0,0,0,-0.002284039,38
3,6828,90.1296,-0.610652,-0.00421169,0,0,0,0,-0.002284039,38
3,6838,90.2748,-0.640403,-0.00434971,0,0,0,0,-0.002284039,38
3,6848,90.4199,-0.669233,-0.00449018,0,0,0,0,-0.002284039,38
3,6858,90.5651,-0.697757,-0.00463801,0,0,0,0,-0.002284039,38
3,6868,90.7103,-0.7272,-0.00478032,0,0,0,0,-0.002284039,38
3,6878,90.8554,-0.756031,-0.00495085,0,0,0,0,-0.002284039,38
3,6888,91.0006,-0.784555,-0.0051496,0,0,0,0,-0.002284039,38
3,6898,91.1458,-0.813998,-0.0053784,0,0,0,0,-0.002284039,38
3,6908,91.291,-0.842829,-0.00564462,0,0,0,0,-0.002284039,38
3,6918,91.4361,-0.872579,-0.0059593,0,0,0,0,-0.002284039,38
3,6928,91.5813,-0.901103,-0.0063249,0,0,0,0,-0.002284039,38
3,6938,91.7265,-0.929933,-0.00677024,0,0,0,0,-0.002284039,38
3,6948,91.8716,-0.958764,-0.00731004,0,0,0,0,-0.002284039,38
3,6958,92.0168,-0.987287,-0.00796762,0,0,0,0,-0.002284039,38
3,6968,92.162,-1.01673,-0.00876812,0,0,0,0,-0.002284039,38
3,6978,92.3071,-1.04587,-0.00978025,0,0,0,0,-0.002284039,38
3,6988,92.4523,-1.07439,-0.0110316,0,0,0,0,-0.002284039,38
4,6998,92.5834,-1.09065,-0.0120014,0,0,0,0,-0.002284039,38
4,7008,92.6581,-1.07562,-0.011288,0,0,0,0,-0.002284039,38
4,7018,92.7329,-1.06028,-0.0106298,0,0,0,0,-0.002284039,38
4,7028,92.8076,-1.04618,-0.00995446,0,0,0,0,-0.002284039,38
4,7038,92.8824,-1.03115,-0.0093116,0,0,0,0,-0.002284039,38
4,7048,92.9571,-1.01612,-0.00868163,0,0,0,0,-0.002284039,38
4,7058,93.0319,-1.00109,-0.00809398,0,0,0,0,-0.002284039,38
4,7068,93.1066,-0.986061,-0.00753639,0,0,0,0,-0.002284039,38
4,7078,93.1814,-0.971339,-0.0070248,0,0,0,0,-0.002284039,38
4,7089,93.2636,-0.954777,-0.00652548,0,0,0,0,-0.002284039,38
4,7099,93.3384,-0.940055,-0.0061102,0,0,0,0,-0.002284039,38
4,7109,93.4131,-0.925026,-0.00576056,0,0,0,0,-0.002284039,38
4,7119,93.4879,-0.910304,-0.0054422,0,0,0,0,-0.002284039,38
4,7129,93.5626,-0.895276,-0.00517536,0,0,0,0,-0.002284039,38
4,7139,93.6374,-0.87994,-0.00491957,0,0,0,0,-0.002284039,38
4,7149,93.7121,-0.865218,-0.00469813,0,0,0,0,-0.002284039,38
4,7159,93.7869,-0.850803,-0.00450429,0,0,0,0,-0.002284039,38
4,7169,93.8616,-0.835774,-0.00433499,0,0,0,0,-0.002284039,38
4,7179,93.9364,-0.820746,-0.00417857,0,0,0,0,-0.002284039,38
4,7189,94.0111,-0.805717,-0.00403932,0,0,0,0,-0.002284039,38
4,7199,94.0859,-0.791302,-0.0039148,0,0,0,0,-0.002284039,38
4,7209,94.1606,-0.775967,-0.00379518,0,0,0,0,-0.002284039,38
4,7219,94.2354,-0.760631,-0.00368845,0,0,0,0,-0.002284039,38
4,7229,94.3101,-0.746216,-0.0035854,0,0,0,0,-0.002284039,38
4,7239,94.3849,-0.731188,-0.00348541,0,0,0,0,-0.002284039,38
4,7250,94.4671,-0.714932,-0.003375,0,0,0,0,-0.002284039,38
4,7260,94.5418,-0.699904,-0.00327869,0,0,0,0,-0.002284039,38
4,7270,94.6166,-0.684875,-0.00318729,0,0,0,0,-0.002284039,38
4,7280,94.6913,-0.669846,-0.00309651,0,0,0,0,-0.002284039,38
4,7290,94.7661,-0.654818,-0.00299468,0,0,0,0,-0.002284039,38
4,7300,94.8408,-0.640096,-0.00290083,0,0,0,0,-0.002284039,38
4,7310,94.9156,-0.625067,-0.00280084,0,0,0,0,-0.002284039,38
4,7320,94.9903,-0.610345,-0.0027027,0,0,0,0,-0.002284039,38
4,7330,95.0651,-0.595317,-0.00260026,0,0,0,0,-0.002284039,38
4,7341,95.1473,-0.578755,-0.00248432,0,0,0,0,-0.002284039,38
4,7351,95.2221,-0.564033,-0.00237329,0,0,0,0,-0.002284039,38
4,7361,95.2968,-0.548697,-0.00225858,0,0,0,0,-0.002284039,38
4,7371,95.3716,-0.533975,-0.00214572,0,0,0,0,-0.002284039,38
4,7381,95.4463,-0.51864,-0.00202978,0,0,0,0,-0.002284039,38
4,7391,95.5211,-0.504225,-0.00192121,0,0,0,0,-0.002284039,38
4,7402,95.6033,-0.487969,-0.00179362,0,0,0,0,-0.002284039,38
4,7412,95.678,-0.472634,-0.0016832,0,0,0,0,-0.002284039,38
4,7422,95.7528,-0.457912,-0.00157524,0,0,0,0,-0.002284039,38
4,7432,95.8275,-0.442577,-0.0014679,0,0,0,0,-0.002284039,38
4,7443,95.9098,-0.426628,-0.00134988,0,0,0,0,-0.002284039,38
4,7453,95.9845,-0.411906,-0.00123989,0,0,0,0,-0.002284039,38
4,7463,96.0593,-0.396571,-0.00113101,0,0,0,0,-0.002284039,38
4,7473,96.134,-0.381542,-0.00102084,0,0,0,0,-0.002284039,38
4,7483,96.2088,-0.366514,-0.000926989,0,0,0,0,-0.002284039,38
4,7494,96.291,-0.350565,-0.000841295,0,0,0,0,-0.002284039,38
4,7504,96.3657,-0.335536,-0.000789523,0,0,0,0,-0.002284039,38
4,7514,96.4405,-0.320508,-0.000752351,0,0,0,0,-0.002284039,38
4,7524,96.5152,-0.305786,-0.000692052,0,0,0,0,-0.002284039,38
4,7534,96.59,-0.290144,-0.000595072,0,0,0,0,-0.002284039,38
4,7544,96.6647,-0.276035,-0.000461348,0,0,0,0,-0.002284039,38
4,7554,96.7395,-0.261313,-0.000303026,0,0,0,0,-0.002284039,38
4,7564,96.8142,-0.245365,-0.000140717,0,0,0,0,-0.002284039,38
4,7575,96.8965,-0.229416,2.01009e-06,0,0,0,0,-0.002284039,38
4,7585,96.9787,-0.212854,0.000191882,0,0,0,0,-0.002284039,38
4,7595,97.0534,-0.197825,0.000306768,0,0,0,0,-0.002284039,38
4,7605,97.1282,-0.182797,0.000417243,0,0,0,0,-0.002284039,38
4,7615,97.2029,-0.168075,0.000505575,0,0,0,0,-0.002284039,38
4,7625,97.2777,-0.153046,0.000581515,0,0,0,0,-0.002284039,38
4,7635,97.3524,-0.138324,0.000648316,0,0,0,0,-0.002284039,38
4,7645,97.4272,-0.123296,0.000720147,0,0,0,0,-0.002284039,38
4,7656,97.5094,-0.10704,0.000800749,0,0,0,0,-0.002284039,38
4,7666,97.5842,-0.0923183,0.000867611,0,0,0,0,-0.002284039,38
4,7676,97.6589,-0.076983,0.000928768,0,0,0,0,-0.002284039,38
4,7686,97.7337,-0.0622611,0.000946312,0,0,0,0,-0.002284039,38
4,7696,97.8084,-0.0472325,0.000937417,0,0,0,0,-0.002284039,38
4,7706,97.8832,-0.0318972,0.000909262,0,0,0,0,-0.002284039,38
4,7716,97.9579,-0.0177887,0.000909875,0,0,0,0,-0.002284039,38
4,7726,98.0327,-0.00245336,0.000931345,0,0,0,0,-0.002284039,38
4,7737,98.1149,0.0144155,0.000980172,0,0,0,0,-0.002284039,38
4,7747,98.1896,0.0291374,0.00102428,0,0,0,0,-0.002284039,38
4,7757,98.2644,0.044166,0.00107893,0,0,0,0,-0.002284039,38
4,7767,98.3391,0.0585812,0.00114659,0,0,0,0,-0.002284039,38
4,7777,98.4139,0.0736098,0.00121848,0,0,0,0,-0.002284039,38
4,7787,98.4886,0.0886384,0.00129166,0,0,0,0,-0.002284039,38
4,7797,98.5634,0.103974,0.00136233,0,0,0,0,-0.002284039,38
4,7808,98.6456,0.120229,0.00145563,0,0,0,0,-0.002284039,38
4,7818,98.7204,0.135258,0.00154218,0,0,0,0,-0.002284039,38
4,7828,98.7951,0.149673,0.00161297,0,0,0,0,-0.002284039,38
4,7838,98.8699,0.164702,0.00167867,0,0,0,0,-0.002284039,38
4,7848,98.9446,0.17973,0.00174019,0,0,0,0,-0.002284039,38
4,7858,99.0194,0.194759,0.00180754,0,0,0,0,-0.002284039,38
4,7868,99.0941,0.209787,0.0018703,0,0,0,0,-0.002284039,38
4,7878,99.1689,0.224203,0.00194145,0,0,0,0,-0.002284039,38
4,7888,99.2436,0.239845,0.00200157,0,0,0,0,-0.002284039,38
4,7899,99.3258,0.256407,0.00206475,0,0,0,0,-0.002284039,38
4,7909,99.4006,0.271435,0.00212793,0,0,0,0,-0.002284039,38
4,7919,99.4753,0.285851,0.00218191,0,0,0,0,-0.002284039,38
4,7929,99.5501,0.300879,0.00223528,0,0,0,0,-0.002284039,38
4,7939,99.6248,0.316215,0.00228251,0,0,0,0,-0.002284039,38
4,7949,99.6996,0.330936,0.00233036,0,0,0,0,-0.002284039,38
4,7959,99.7743,0.346272,0.00238188,0,0,0,0,-0.002284039,38
4,7969,99.8491,0.360687,0.00243709,0,0,0,0,-0.002284039,38
4,7979,99.9238,0.375716,0.0025015,0,0,0,0,-0.002284039,38
4,7989,99.9986,0.390744,0.00256836,0,0,0,0,-0.002284039,38
4,7995,100.043,0.399945,0.0026113,0,0,0,0,-0.002284039,38