File: Feb25/CV02.11.25/scan1650secondelectrode-1.108CV_650_FLiNaK_Ni_02_11_25_200mVperS_sh15.csv
Segment,Point,Elapsed Time (s),Potential (V),Current (A),Frequency (Hz),|Z| (ohms),Zre (ohms),Zim (ohms),Phase of Z (deg),ActionId
0,0,0.0058,-0.000613119,-0.000456747,0,0,0,0,-0.002284039,38
0,7,0.0464,-0.00828078,-0.00091012,0,0,0,0,-0.002284039,38
0,14,0.087,-0.0168686,-0.00128743,0,0,0,0,-0.002284039,38
0,21,0.1276,-0.0248429,-0.00162824,0,0,0,0,-0.002284039,38
0,28,0.1682,-0.033124,-0.00195004,0,0,0,0,-0.002284039,38
0,35,0.2088,-0.0410984,-0.00225184,0,0,0,0,-0.002284039,38
0,42,0.2494,-0.0493794,-0.00253523,0,0,0,0,-0.002284039,38
0,49,0.29,-0.0576605,-0.00280636,0,0,0,0,-0.002284039,38
0,56,0.3306,-0.0656349,-0.00306645,0,0,0,0,-0.002284039,38
0,63,0.3712,-0.0736092,-0.00332163,0,0,0,0,-0.002284039,38
0,70,0.4118,-0.0812769,-0.00356945,0,0,0,0,-0.002284039,38
0,77,0.4524,-0.089558,-0.00380745,0,0,0,0,-0.002284039,38
0,84,0.493,-0.097839,-0.00404239,0,0,0,0,-0.002284039,38
0,91,0.5336,-0.105813,-0.00426996,0,0,0,0,-0.002284039,38
0,99,0.58,-0.115015,-0.00452821,0,0,0,0,-0.002284039,38
0,106,0.6206,-0.123296,-0.00474904,0,0,0,0,-0.002284039,38
0,113,0.6612,-0.13127,-0.00496557,0,0,0,0,-0.002284039,38
0,120,0.7018,-0.139551,-0.0051815,0,0,0,0,-0.002284039,38
0,127,0.7424,-0.147832,-0.00539742,0,0,0,0,-0.002284039,38
0,134,0.783,-0.1555,-0.00560352,0,0,0,0,-0.002284039,38
0,141,0.8236,-0.163474,-0.00581515,0,0,0,0,-0.002284039,38
0,148,0.8642,-0.171755,-0.00601942,0,0,0,0,-0.002284039,38
0,155,0.9048,-0.17973,-0.00622491,0,0,0,0,-0.002284039,38
0,162,0.9454,-0.188317,-0.00642979,0,0,0,0,-0.002284039,38
0,169,0.986,-0.195985,-0.0066316,0,0,0,0,-0.002284039,38
0,176,1.0266,-0.204266,-0.00683403,0,0,0,0,-0.002284039,38
0,183,1.0672,-0.21224,-0.00703584,0,0,0,0,-0.002284039,38
0,191,1.1136,-0.221748,-0.00726526,0,0,0,0,-0.002284039,38
0,198,1.1542,-0.229416,-0.0074683,0,0,0,0,-0.002284039,38
0,205,1.1948,-0.238004,-0.00766275,0,0,0,0,-0.002284039,38
0,212,1.2354,-0.245978,-0.0078615,0,0,0,0,-0.002284039,38
0,219,1.276,-0.253953,-0.00806331,0,0,0,0,-0.002284039,38
0,226,1.3166,-0.261927,-0.00825715,0,0,0,0,-0.002284039,38
0,233,1.3572,-0.270208,-0.00845589,0,0,0,0,-0.002284039,38
0,240,1.3978,-0.278182,-0.00865034,0,0,0,0,-0.002284039,38
0,247,1.4384,-0.286463,-0.00884909,0,0,0,0,-0.002284039,38
0,254,1.479,-0.294131,-0.00904477,0,0,0,0,-0.002284039,38
0,261,1.5196,-0.302412,-0.00923431,0,0,0,0,-0.002284039,38
0,268,1.5602,-0.31008,-0.00942815,0,0,0,0,-0.002284039,38
0,275,1.6008,-0.318668,-0.00961954,0,0,0,0,-0.002284039,38
0,283,1.6472,-0.328175,-0.00984037,0,0,0,0,-0.002284039,38
0,290,1.6878,-0.33615,-0.0100342,0,0,0,0,-0.002284039,38
0,297,1.7284,-0.344431,-0.0102244,0,0,0,0,-0.002284039,38
0,304,1.769,-0.352099,-0.0104127,0,0,0,0,-0.002284039,38
0,311,1.8096,-0.360686,-0.0106016,0,0,0,0,-0.002284039,38
0,318,1.8502,-0.368661,-0.0107887,0,0,0,0,-0.002284039,38
0,325,1.8908,-0.376328,-0.010977,0,0,0,0,-0.002284039,38
0,332,1.9314,-0.384609,-0.0111623,0,0,0,0,-0.002284039,38
0,339,1.972,-0.392584,-0.0113475,0,0,0,0,-0.002284039,38
0,346,2.0126,-0.400865,-0.0115279,0,0,0,0,-0.002284039,38
0,353,2.0532,-0.408839,-0.0117076,0,0,0,0,-0.002284039,38
0,360,2.0938,-0.41712,-0.0118849,0,0,0,0,-0.002284039,38
0,367,2.1344,-0.425095,-0.0120646,0,0,0,0,-0.002284039,38
0,374,2.175,-0.433376,-0.0122425,0,0,0,0,-0.002284039,38
0,382,2.2214,-0.442577,-0.01244,0,0,0,0,-0.002284039,38
0,389,2.262,-0.450858,-0.0126148,0,0,0,0,-0.002284039,38
0,396,2.3026,-0.458832,-0.0127835,0,0,0,0,-0.002284039,38
0,403,2.3432,-0.467113,-0.0129553,0,0,0,0,-0.002284039,38
0,410,2.3838,-0.474474,-0.0131234,0,0,0,0,-0.002284039,38
0,417,2.4244,-0.483062,-0.0132951,0,0,0,0,-0.002284039,38
0,424,2.465,-0.491343,-0.013462,0,0,0,0,-0.002284039,38
0,431,2.5056,-0.498704,-0.0136257,0,0,0,0,-0.002284039,38
0,438,2.5462,-0.507292,-0.0137938,0,0,0,0,-0.002284039,38
0,445,2.5868,-0.51588,-0.0139619,0,0,0,0,-0.002284039,38
0,452,2.6274,-0.523547,-0.01413,0,0,0,0,-0.002284039,38
0,459,2.668,-0.531215,-0.014295,0,0,0,0,-0.002284039,38
0,466,2.7086,-0.539496,-0.0144637,0,0,0,0,-0.002284039,38
0,474,2.755,-0.549311,-0.014655,0,0,0,0,-0.002284039,38
0,481,2.7956,-0.556978,-0.0148268,0,0,0,0,-0.002284039,38
0,488,2.8362,-0.56526,-0.0149949,0,0,0,0,-0.002284039,38
0,495,2.8768,-0.573847,-0.0151654,0,0,0,0,-0.002284039,38
0,502,2.9174,-0.581208,-0.0153335,0,0,0,0,-0.002284039,38
0,509,2.958,-0.589489,-0.0155034,0,0,0,0,-0.002284039,38
0,516,2.9986,-0.597157,-0.0156764,0,0,0,0,-0.002284039,38
0,523,3.0392,-0.605131,-0.0158438,0,0,0,0,-0.002284039,38
0,530,3.0798,-0.613719,-0.0160144,0,0,0,0,-0.002284039,38
0,537,3.1204,-0.621693,-0.0161886,0,0,0,0,-0.002284039,38
0,544,3.161,-0.629668,-0.0163622,0,0,0,0,-0.002284039,38
0,551,3.2016,-0.637642,-0.0164983,0,0,0,0,-0.002284039,38
0,558,3.2422,-0.645923,-0.0166695,0,0,0,0,-0.002284039,38
0,565,3.2828,-0.654818,-0.0168388,0,0,0,0,-0.002284039,38
0,572,3.3234,-0.661872,-0.0170142,0,0,0,0,-0.002284039,38
0,579,3.364,-0.670766,-0.0171792,0,0,0,0,-0.002284039,38
0,587,3.4104,-0.680274,-0.017381,0,0,0,0,-0.002284039,38
0,594,3.451,-0.687635,-0.0175571,0,0,0,0,-0.002284039,38
0,601,3.4916,-0.696223,-0.0177295,0,0,0,0,-0.002284039,38
0,608,3.5322,-0.703584,-0.0179153,0,0,0,0,-0.002284039,38
0,615,3.5728,-0.712172,-0.0181079,0,0,0,0,-0.002284039,38
0,623,3.6192,-0.719533,-0.018292,0,0,0,0,-0.002284039,38
0,630,3.6598,-0.728121,-0.018476,0,0,0,0,-0.002284039,38
0,637,3.7004,-0.736402,-0.01866,0,0,0,0,-0.002284039,38
0,644,3.741,-0.744683,-0.0188502,0,0,0,0,-0.002284039,38
0,651,3.7816,-0.752657,-0.0190219,0,0,0,0,-0.002284039,38
0,658,3.8222,-0.760631,-0.0192121,0,0,0,0,-0.002284039,38
0,665,3.8628,-0.768606,-0.019439,0,0,0,0,-0.002284039,38
0,672,3.9034,-0.776887,-0.0196231,0,0,0,0,-0.002284039,38
0,679,3.944,-0.785168,-0.0198132,0,0,0,0,-0.002284039,38
0,687,3.9904,-0.794369,-0.0200157,0,0,0,0,-0.002284039,38
0,694,4.031,-0.802037,-0.0201935,0,0,0,0,-0.002284039,38
0,701,4.0716,-0.810011,-0.020396,0,0,0,0,-0.002284039,38
0,708,4.1122,-0.818292,-0.0205616,0,0,0,0,-0.002284039,38
0,715,4.1528,-0.826573,-0.0207518,0,0,0,0,-0.002284039,38
0,722,4.1934,-0.834241,-0.0209358,0,0,0,0,-0.002284039,38
0,729,4.234,-0.842829,-0.0211075,0,0,0,0,-0.002284039,38
0,736,4.2746,-0.850496,-0.0212977,0,0,0,0,-0.002284039,38
0,743,4.3152,-0.858471,-0.0214817,0,0,0,0,-0.002284039,38
0,750,4.3558,-0.866445,-0.0216596,0,0,0,0,-0.002284039,38
0,757,4.3964,-0.875033,-0.0218314,0,0,0,0,-0.002284039,38
0,764,4.437,-0.883007,-0.0220154,0,0,0,0,-0.002284039,38
0,771,4.4776,-0.891288,-0.0221871,0,0,0,0,-0.002284039,38
0,779,4.524,-0.899569,-0.0224018,0,0,0,0,-0.002284039,38
0,786,4.5646,-0.908157,-0.0226104,0,0,0,0,-0.002284039,38
0,793,4.6052,-0.916438,-0.0228005,0,0,0,0,-0.002284039,38
0,800,4.6458,-0.924106,-0.0229723,0,0,0,0,-0.002284039,38
0,807,4.6864,-0.933,-0.0231563,0,0,0,0,-0.002284039,38
0,814,4.727,-0.940668,-0.023322,0,0,0,0,-0.002284039,38
0,821,4.7676,-0.948949,-0.023506,0,0,0,0,-0.002284039,38
0,828,4.8082,-0.95723,-0.02369,0,0,0,0,-0.002284039,38
0,835,4.8488,-0.964898,-0.0238556,0,0,0,0,-0.002284039,38
0,842,4.8894,-0.973179,-0.0240212,0,0,0,0,-0.002284039,38
0,849,4.93,-0.981153,-0.0242114,0,0,0,0,-0.002284039,38
0,856,4.9706,-0.989434,-0.024377,0,0,0,0,-0.002284039,38
0,863,5.0112,-0.997715,-0.024561,0,0,0,0,-0.002284039,38
0,871,5.0576,-1.006,-0.0247512,0,0,0,0,-0.002284039,38
0,878,5.0982,-1.01458,-0.0249291,0,0,0,0,-0.002284039,38
0,885,5.1388,-1.02287,-0.0251008,0,0,0,0,-0.002284039,38
0,892,5.1794,-1.03084,-0.0252726,0,0,0,0,-0.002284039,38
0,899,5.22,-1.03881,-0.0254566,0,0,0,0,-0.002284039,38
0,906,5.2606,-1.04679,-0.0256222,0,0,0,0,-0.002284039,38
0,913,5.3012,-1.05507,-0.0257879,0,0,0,0,-0.002284039,38
0,920,5.3418,-1.06335,-0.025978,0,0,0,0,-0.002284039,38
0,927,5.3824,-1.07102,-0.0261436,0,0,0,0,-0.002284039,38
0,934,5.423,-1.07899,-0.0263154,0,0,0,0,-0.002284039,38
0,941,5.4636,-1.08727,-0.0264933,0,0,0,0,-0.002284039,38
0,948,5.5042,-1.09555,-0.0266589,0,0,0,0,-0.002284039,38
0,955,5.5448,-1.10322,-0.0268429,0,0,0,0,-0.002284039,38
0,963,5.5912,-1.11304,-0.0270576,0,0,0,0,-0.002284039,38
0,970,5.6318,-1.1204,-0.0272355,0,0,0,0,-0.002284039,38
0,977,5.6724,-1.12868,-0.0274134,0,0,0,0,-0.002284039,38
0,984,5.713,-1.13696,-0.027579,0,0,0,0,-0.002284039,38
0,992,5.7594,-1.14585,-0.0277753,0,0,0,0,-0.002284039,38
0,999,5.8,-1.15444,-0.0279655,0,0,0,0,-0.002284039,38
1,1006,5.903649,-1.13512,-0.0267325,0,0,0,0,-0.002284039,38
1,1013,6.007298,-1.11426,-0.0260639,0,0,0,0,-0.002284039,38
1,1020,6.110947,-1.0931,-0.0254505,0,0,0,0,-0.002284039,38
1,1027,6.214596,-1.07286,-0.0248616,0,0,0,0,-0.002284039,38
1,1034,6.318245,-1.05231,-0.0243279,0,0,0,0,-0.002284039,38
1,1041,6.421894,-1.03145,-0.0237697,0,0,0,0,-0.002284039,38
1,1048,6.525543,-1.01121,-0.0232422,0,0,0,0,-0.002284039,38
1,1055,6.629192,-0.990661,-0.0227024,0,0,0,0,-0.002284039,38
1,1062,6.732841,-0.970419,-0.0221687,0,0,0,0,-0.002284039,38
1,1069,6.83649,-0.949256,-0.0216412,0,0,0,0,-0.002284039,38
1,1076,6.940139,-0.9284,-0.0211321,0,0,0,0,-0.002284039,38
1,1083,7.043788,-0.90785,-0.0206291,0,0,0,0,-0.002284039,38
1,1090,7.147437,-0.887301,-0.0201077,0,0,0,0,-0.002284039,38
1,1097,7.251086,-0.866752,-0.0195801,0,0,0,0,-0.002284039,38
1,1104,7.354735,-0.846509,-0.0190526,0,0,0,0,-0.002284039,38
1,1111,7.458384,-0.825346,-0.0185189,0,0,0,0,-0.002284039,38
1,1118,7.562033,-0.804797,-0.0179669,0,0,0,0,-0.002284039,38
1,1125,7.665682,-0.783941,-0.0173841,0,0,0,0,-0.002284039,38
1,1132,7.769331,-0.763699,-0.0168566,0,0,0,0,-0.002284039,38
1,1139,7.87298,-0.743456,-0.0162984,0,0,0,0,-0.002284039,38
1,1146,7.976629,-0.722293,-0.015869,0,0,0,0,-0.002284039,38
1,1153,8.080278,-0.702051,-0.0154089,0,0,0,0,-0.002284039,38
1,1160,8.183927,-0.681194,-0.0150593,0,0,0,0,-0.002284039,38
1,1167,8.287576,-0.660338,-0.0146054,0,0,0,0,-0.002284039,38
1,1174,8.391225,-0.639789,-0.0141453,0,0,0,0,-0.002284039,38
1,1181,8.494874,-0.619853,-0.013676,0,0,0,0,-0.002284039,38
1,1188,8.598523,-0.598997,-0.0132031,0,0,0,0,-0.002284039,38
1,1195,8.702172,-0.578448,-0.0127118,0,0,0,0,-0.002284039,38
1,1202,8.805821,-0.557592,-0.012229,0,0,0,0,-0.002284039,38
1,1209,8.90947,-0.537656,-0.0117806,0,0,0,0,-0.002284039,38
1,1216,9.013119,-0.516186,-0.01135,0,0,0,0,-0.002284039,38
1,1223,9.116768,-0.495944,-0.0108887,0,0,0,0,-0.002284039,38
1,1230,9.220417,-0.475701,-0.0104108,0,0,0,0,-0.002284039,38
1,1237,9.324066,-0.454538,-0.00992011,0,0,0,0,-0.002284039,38
1,1244,9.427715,-0.433989,-0.00942324,0,0,0,0,-0.002284039,38
1,1251,9.531364,-0.412826,-0.00892822,0,0,0,0,-0.002284039,38
1,1258,9.635013,-0.392584,-0.00843442,0,0,0,0,-0.002284039,38
1,1265,9.738662,-0.371728,-0.00794799,0,0,0,0,-0.002284039,38
1,1272,9.842311,-0.351485,-0.00746216,0,0,0,0,-0.002284039,38
1,1279,9.94596,-0.330629,-0.00697941,0,0,0,0,-0.002284039,38
1,1286,10.0496,-0.31008,-0.00648316,0,0,0,0,-0.002284039,38
1,1293,10.1533,-0.289837,-0.00599059,0,0,0,0,-0.002284039,38
1,1300,10.2569,-0.268368,-0.0054974,0,0,0,0,-0.002284039,38
1,1307,10.3606,-0.248432,-0.00501403,0,0,0,0,-0.002284039,38
1,1314,10.4642,-0.227269,-0.00452821,0,0,0,0,-0.002284039,38
1,1321,10.5679,-0.207026,-0.00406938,0,0,0,0,-0.002284039,38
1,1328,10.6715,-0.185864,-0.00361484,0,0,0,0,-0.002284039,38
1,1335,10.7752,-0.165008,-0.00316091,0,0,0,0,-0.002284039,38
1,1342,10.8788,-0.144152,-0.00270822,0,0,0,0,-0.002284039,38
1,1349,10.98245,-0.123602,-0.00226227,0,0,0,0,-0.002284039,38
1,1356,11.0861,-0.10336,-0.00180221,0,0,0,0,-0.002284039,38
1,1363,11.1897,-0.0828104,-0.00132779,0,0,0,0,-0.002284039,38
1,1370,11.2934,-0.0619544,-0.000843381,0,0,0,0,-0.002284039,38
1,1377,11.397,-0.0407916,-0.000326458,0,0,0,0,-0.002284039,38
1,1384,11.5007,-0.0208557,0.000201009,0,0,0,0,-0.002284039,38
1,1391,11.6043,0.000307,0.000881842,0,0,0,0,-0.002284039,38
1,1398,11.708,0.021163,0.00163045,0,0,0,0,-0.002284039,38
1,1405,11.8116,0.0410989,0.00253524,0,0,0,0,-0.002284039,38
1,1412,11.9153,0.061955,0.00364367,0,0,0,0,-0.002284039,38
1,1419,12.01894,0.0825043,0.00502692,0,0,0,0,-0.002284039,38
1,1426,12.1226,0.103054,0.00682974,0,0,0,0,-0.002284039,38
1,1433,12.2262,0.12299,0.00938215,0,0,0,0,-0.002284039,38
1,1440,12.3299,0.143846,0.0120861,0,0,0,0,-0.002284039,38
1,1447,12.4335,0.164702,0.0147348,0,0,0,0,-0.002284039,38
1,1454,12.5372,0.184944,0.017048,0,0,0,0,-0.002284039,38
1,1461,12.6408,0.204267,0.018476,0,0,0,0,-0.002284039,38
1,1468,12.7445,0.225123,0.0195433,0,0,0,0,-0.002284039,38
1,1475,12.8481,0.245672,0.0198623,0,0,0,0,-0.002284039,38
1,1482,12.9518,0.266221,0.0196783,0,0,0,0,-0.002284039,38
1,1489,13.05543,0.286771,0.0196967,0,0,0,0,-0.002284039,38
1,1496,13.1591,0.307933,0.0200893,0,0,0,0,-0.002284039,38
1,1503,13.2627,0.327869,0.0207579,0,0,0,0,-0.002284039,38
1,1510,13.3664,0.349032,0.0216657,0,0,0,0,-0.002284039,38
1,1517,13.47,0.369275,0.0227269,0,0,0,0,-0.002284039,38
1,1524,13.5737,0.389824,0.0239231,0,0,0,0,-0.002284039,38
1,1531,13.6773,0.410373,0.0252235,0,0,0,0,-0.002284039,38
1,1538,13.781,0.430616,0.0265178,0,0,0,0,-0.002284039,38
1,1545,13.8846,0.451472,0.0278121,0,0,0,0,-0.002284039,38
1,1552,13.9883,0.471408,0.0290819,0,0,0,0,-0.002284039,38
1,1559,14.09192,0.492571,0.0303701,0,0,0,0,-0.002284039,38
1,1566,14.1956,0.51312,0.0316337,0,0,0,0,-0.002284039,38
1,1573,14.2992,0.533056,0.0328667,0,0,0,0,-0.002284039,38
1,1580,14.4029,0.553605,0.0340505,0,0,0,0,-0.002284039,38
1,1587,14.5065,0.574155,0.0351915,0,0,0,0,-0.002284039,38
1,1594,14.6102,0.595317,0.0360993,0,0,0,0,-0.002284039,38
1,1601,14.7138,0.61556,0.0368784,0,0,0,0,-0.002284039,38
1,1608,14.8175,0.636416,0.0375347,0,0,0,0,-0.002284039,38
1,1615,14.9211,0.656659,0.0379825,0,0,0,0,-0.002284039,38
1,1622,15.0248,0.677208,0.0382463,0,0,0,0,-0.002284039,38
1,1629,15.12841,0.698064,0.0384119,0,0,0,0,-0.002284039,38
1,1636,15.2321,0.71892,0.0386757,0,0,0,0,-0.002284039,38
1,1643,15.3357,0.739469,0.0387799,0,0,0,0,-0.002284039,38
1,1650,15.4394,0.760325,0.0388352,0,0,0,0,-0.002284039,38
1,1657,15.543,0.781181,0.038964,0,0,0,0,-0.002284039,38
1,1664,15.6467,0.801117,0.0392891,0,0,0,0,-0.002284039,38
1,1671,15.7503,0.82228,0.0398902,0,0,0,0,-0.002284039,38
1,1678,15.854,0.843443,0.0404423,0,0,0,0,-0.002284039,38
1,1685,15.9576,0.863685,0.0412888,0,0,0,0,-0.002284039,38
1,1692,16.0613,0.884235,0.0425402,0,0,0,0,-0.002284039,38
1,1699,16.1649,0.904784,0.0437179,0,0,0,0,-0.002284039,38
1,1706,16.2685,0.925333,0.0452883,0,0,0,0,-0.002284039,38
1,1713,16.3722,0.945576,0.0475272,0,0,0,0,-0.002284039,38
1,1720,16.4758,0.964898,0.0508151,0,0,0,0,-0.002284039,38
1,1727,16.5795,0.985448,0.0544833,0,0,0,0,-0.002284039,38
1,1734,16.6831,1.006,0.0583049,0,0,0,0,-0.002284039,38
1,1741,16.7868,1.02563,0.0623473,0,0,0,0,-0.002284039,38
1,1748,16.8904,1.04648,0.0665737,0,0,0,0,-0.002284039,38
1,1755,16.9941,1.0658,0.0711559,0,0,0,0,-0.002284039,38
1,1762,17.0977,1.08543,0.0758791,0,0,0,0,-0.002284039,38
1,1769,17.20139,1.10568,0.0807987,0,0,0,0,-0.002284039,38
1,1776,17.305,1.12531,0.0857796,0,0,0,0,-0.002284039,38
1,1783,17.4087,1.14494,0.0912145,0,0,0,0,-0.002284039,38
1,1790,17.5123,1.16518,0.0966186,0,0,0,0,-0.002284039,38
1,1797,17.616,1.18481,0.102084,0,0,0,0,-0.002284039,38
1,1804,17.7196,1.20444,0.107629,0,0,0,0,-0.002284039,38
1,1811,17.8233,1.22437,0.11323,0,0,0,0,-0.002284039,38
1,1818,17.9269,1.24369,0.119076,0,0,0,0,-0.002284039,38
1,1825,18.0306,1.26363,0.124983,0,0,0,0,-0.002284039,38
1,1832,18.1342,1.28387,0.129473,0,0,0,0,-0.002284039,38
1,1839,18.23788,1.30626,0.118137,0,0,0,0,-0.002284039,38
1,1846,18.3415,1.33417,0.0765048,0,0,0,0,-0.002284039,38
1,1853,18.4452,1.35932,0.0535448,0,0,0,0,-0.002284039,38
1,1860,18.5488,1.37773,0.0637458,0,0,0,0,-0.002284039,38
1,1867,18.6525,1.3995,0.0561518,0,0,0,0,-0.002284039,38
1,1874,18.7561,1.42066,0.0567345,0,0,0,0,-0.002284039,38
1,1881,18.8598,1.43845,0.0711068,0,0,0,0,-0.002284039,38
1,1888,18.9634,1.46054,0.0628687,0,0,0,0,-0.002284039,38
1,1895,19.0671,1.4774,0.0866507,0,0,0,0,-0.002284039,38
1,1902,19.1707,1.49857,0.0853318,0,0,0,0,-0.002284039,38
1,1909,19.27437,1.51697,0.0994771,0,0,0,0,-0.002284039,38
1,1916,19.378,1.53783,0.0982135,0,0,0,0,-0.002284039,38
1,1923,19.4817,1.55531,0.116119,0,0,0,0,-0.002284039,38
1,1930,19.5853,1.57494,0.121192,0,0,0,0,-0.002284039,38
1,1937,19.689,1.59702,0.117413,0,0,0,0,-0.002284039,38
1,1944,19.7926,1.61328,0.142048,0,0,0,0,-0.002284039,38
1,1951,19.8963,1.63505,0.13381,0,0,0,0,-0.002284039,38
1,1958,19.9999,1.65805,0.120848,0,0,0,0,-0.002284039,38
1,1965,20.1036,1.67983,0.114076,0,0,0,0,-0.002284039,38
1,1972,20.2072,1.7013,0.11177,0,0,0,0,-0.002284039,38
1,1979,20.31086,1.72124,0.113101,0,0,0,0,-0.002284039,38
1,1986,20.4145,1.74301,0.108089,0,0,0,0,-0.002284039,38
1,1993,20.5182,1.7608,0.128945,0,0,0,0,-0.002284039,38
1,2000,20.6218,1.7746,0.12148,0,0,0,0,-0.002284039,38
1,2007,20.7255,1.7562,0.110212,0,0,0,0,-0.002284039,38
1,2014,20.8291,1.73504,0.109421,0,0,0,0,-0.002284039,38
1,2021,20.9328,1.71418,0.113046,0,0,0,0,-0.002284039,38
1,2028,21.0364,1.69302,0.113592,0,0,0,0,-0.002284039,38
1,2035,21.1401,1.67247,0.11361,0,0,0,0,-0.002284039,38
1,2042,21.2437,1.651,0.119701,0,0,0,0,-0.002284039,38
1,2049,21.34735,1.62984,0.122689,0,0,0,0,-0.002284039,38
1,2056,21.451,1.6099,0.116469,0,0,0,0,-0.002284039,38
1,2063,21.5546,1.58905,0.120732,0,0,0,0,-0.002284039,38
1,2070,21.6583,1.57156,0.0967536,0,0,0,0,-0.002284039,38
1,2077,21.7619,1.5504,0.10017,0,0,0,0,-0.002284039,38
1,2084,21.8656,1.53139,0.0900122,0,0,0,0,-0.002284039,38
1,2091,21.9692,1.509,0.101753,0,0,0,0,-0.002284039,38
1,2098,22.0729,1.48814,0.104802,0,0,0,0,-0.002284039,38
1,2105,22.1765,1.46943,0.0919138,0,0,0,0,-0.002284039,38
1,2112,22.2802,1.44612,0.105384,0,0,0,0,-0.002284039,38
1,2119,22.38384,1.4271,0.0943735,0,0,0,0,-0.002284039,38
1,2126,22.4875,1.40932,0.0791793,0,0,0,0,-0.002284039,38
1,2133,22.5911,1.38877,0.0816514,0,0,0,0,-0.002284039,38
1,2140,22.6948,1.36822,0.0770201,0,0,0,0,-0.002284039,38
1,2147,22.7984,1.34889,0.067549,0,0,0,0,-0.002284039,38
1,2154,22.9021,1.32804,0.0671564,0,0,0,0,-0.002284039,38
1,2161,23.0057,1.3081,0.0637765,0,0,0,0,-0.002284039,38
1,2168,23.1094,1.28878,0.0582742,0,0,0,0,-0.002284039,38
1,2175,23.213,1.26884,0.0512936,0,0,0,0,-0.002284039,38
1,2182,23.3167,1.24983,0.0429266,0,0,0,0,-0.002284039,38
1,2189,23.42033,1.22989,0.0358049,0,0,0,0,-0.002284039,38
1,2196,23.524,1.21026,0.0271926,0,0,0,0,-0.002284039,38
1,2203,23.6276,1.19186,0.018157,0,0,0,0,-0.002284039,38
1,2210,23.7313,1.17285,0.00933001,0,0,0,0,-0.002284039,38
1,2217,23.8349,1.15291,0.00137159,0,0,0,0,-0.002284039,38
1,2224,23.9386,1.13328,-0.00574645,0,0,0,0,-0.002284039,38
1,2231,24.0422,1.11304,-0.0123523,0,0,0,0,-0.002284039,38
1,2238,24.1459,1.09433,-0.0195863,0,0,0,0,-0.002284039,38
1,2245,24.2495,1.07409,-0.0278244,0,0,0,0,-0.002284039,38
1,2252,24.3532,1.05538,-0.0358785,0,0,0,0,-0.002284039,38
1,2259,24.45682,1.03667,-0.0439265,0,0,0,0,-0.002284039,38
1,2266,24.5605,1.01704,-0.0516616,0,0,0,0,-0.002284039,38
1,2273,24.6641,0.997409,-0.0585809,0,0,0,0,-0.002284039,38
1,2280,24.7678,0.977167,-0.064531,0,0,0,0,-0.002284039,38
1,2287,24.8714,0.957844,-0.0680949,0,0,0,0,-0.002284039,38
1,2294,24.9751,0.937295,-0.071162,0,0,0,0,-0.002284039,38
1,2301,25.0787,0.917359,-0.0726833,0,0,0,0,-0.002284039,38
1,2308,25.1824,0.89589,-0.0715607,0,0,0,0,-0.002284039,38
1,2315,25.286,0.87534,-0.0676533,0,0,0,0,-0.002284039,38
1,2322,25.3897,0.854177,-0.0655493,0,0,0,0,-0.002284039,38
1,2329,25.49331,0.833321,-0.0725299,0,0,0,0,-0.002284039,38
1,2336,25.597,0.814306,-0.078204,0,0,0,0,-0.002284039,38
1,2343,25.7006,0.79345,-0.0794615,0,0,0,0,-0.002284039,38
1,2350,25.8043,0.771367,-0.0727691,0,0,0,0,-0.002284039,38
1,2357,25.9079,0.748977,-0.0599734,0,0,0,0,-0.002284039,38
1,2364,26.0116,0.724441,-0.0384671,0,0,0,0,-0.002284039,38
1,2371,26.1152,0.700518,-0.0230214,0,0,0,0,-0.002284039,38
1,2378,26.2189,0.679048,-0.0147342,0,0,0,0,-0.002284039,38
1,2385,26.3225,0.657579,-0.00947538,0,0,0,0,-0.002284039,38
1,2392,26.4262,0.635496,-0.00561089,0,0,0,0,-0.002284039,38
1,2399,26.5298,0.614946,-0.00323514,0,0,0,0,-0.002284039,38
1,2406,26.6334,0.593784,-0.00163597,0,0,0,0,-0.002284039,38
1,2413,26.7371,0.572928,-0.000429205,0,0,0,0,-0.002284039,38
1,2420,26.8407,0.551765,0.000535632,0,0,0,0,-0.002284039,38
1,2427,26.9444,0.531829,0.00125222,0,0,0,0,-0.002284039,38
1,2434,27.048,0.510666,0.00190649,0,0,0,0,-0.002284039,38
1,2441,27.1517,0.490117,0.0024101,0,0,0,0,-0.002284039,38
1,2448,27.2553,0.468954,0.00277263,0,0,0,0,-0.002284039,38
1,2455,27.359,0.448098,0.00300143,0,0,0,0,-0.002284039,38
1,2462,27.4626,0.427856,0.00314251,0,0,0,0,-0.002284039,38
1,2469,27.56629,0.406386,0.00323943,0,0,0,0,-0.002284039,38
1,2476,27.6699,0.386144,0.0033155,0,0,0,0,-0.002284039,38
1,2483,27.7736,0.365594,0.00338788,0,0,0,0,-0.002284039,38
1,2490,27.8772,0.345045,0.00346149,0,0,0,0,-0.002284039,38
1,2497,27.9809,0.324189,0.00349829,0,0,0,0,-0.002284039,38
1,2504,28.0845,0.30364,0.00350381,0,0,0,0,-0.002284039,38
1,2511,28.1882,0.28217,0.00348173,0,0,0,0,-0.002284039,38
1,2518,28.2918,0.261314,0.00340444,0,0,0,0,-0.002284039,38
1,2525,28.3955,0.241071,0.00324618,0,0,0,0,-0.002284039,38
1,2532,28.4991,0.220829,0.00304069,0,0,0,0,-0.002284039,38
1,2539,28.60278,0.199666,0.00280636,0,0,0,0,-0.002284039,38
1,2546,28.7064,0.179423,0.00254505,0,0,0,0,-0.002284039,38
1,2553,28.8101,0.158874,0.00224693,0,0,0,0,-0.002284039,38
1,2560,28.9137,0.137405,0.00193409,0,0,0,0,-0.002284039,38
1,2567,29.0174,0.116855,0.00159426,0,0,0,0,-0.002284039,38
1,2574,29.121,0.0959994,0.00121112,0,0,0,0,-0.002284039,38
1,2581,29.2247,0.0757568,0.000770937,0,0,0,0,-0.002284039,38
1,2588,29.3283,0.0549007,0.000322042,0,0,0,0,-0.002284039,38
1,2595,29.432,0.0346581,-0.000134699,0,0,0,0,-0.002284039,38
1,2602,29.5356,0.0138021,-0.00062519,0,0,0,0,-0.002284039,38
1,2609,29.63927,-0.00736066,-0.00115776,0,0,0,0,-0.002284039,38
1,2616,29.7429,-0.0276033,-0.00173614,0,0,0,0,-0.002284039,38
1,2623,29.8466,-0.0484593,-0.00236409,0,0,0,0,-0.002284039,38
1,2630,29.9502,-0.0693153,-0.00309037,0,0,0,0,-0.002284039,38
1,2637,30.0539,-0.0892513,-0.00409637,0,0,0,0,-0.002284039,38
1,2644,30.1575,-0.109187,-0.0128338,0,0,0,0,-0.002284039,38
1,2651,30.2612,-0.130043,-0.0142373,0,0,0,0,-0.002284039,38
1,2658,30.3648,-0.150593,-0.0148182,0,0,0,0,-0.002284039,38
1,2665,30.4685,-0.171142,-0.0153249,0,0,0,0,-0.002284039,38
1,2672,30.5721,-0.192611,-0.0158095,0,0,0,0,-0.002284039,38
1,2679,30.67576,-0.212547,-0.0157432,0,0,0,0,-0.002284039,38
1,2686,30.7794,-0.233403,-0.0153531,0,0,0,0,-0.002284039,38
1,2693,30.8831,-0.254259,-0.0157782,0,0,0,0,-0.002284039,38
1,2700,30.9867,-0.274809,-0.0165897,0,0,0,0,-0.002284039,38
1,2707,31.0904,-0.295665,-0.0174663,0,0,0,0,-0.002284039,38
1,2714,31.194,-0.31468,-0.018292,0,0,0,0,-0.002284039,38
1,2721,31.2977,-0.335536,-0.0191753,0,0,0,0,-0.002284039,38
1,2728,31.4013,-0.356086,-0.0200709,0,0,0,0,-0.002284039,38
1,2735,31.505,-0.376328,-0.0209542,0,0,0,0,-0.002284039,38
1,2742,31.6086,-0.396571,-0.0217946,0,0,0,0,-0.002284039,38
1,2749,31.71225,-0.417427,-0.0225368,0,0,0,0,-0.002284039,38
1,2756,31.8159,-0.438896,-0.0231809,0,0,0,0,-0.002284039,38
1,2763,31.9195,-0.459139,-0.0237636,0,0,0,0,-0.002284039,38
1,2770,32.0232,-0.479688,-0.0243034,0,0,0,0,-0.002284039,38
1,2777,32.1268,-0.500238,-0.0248064,0,0,0,0,-0.002284039,38
1,2784,32.2305,-0.520787,-0.025291,0,0,0,0,-0.002284039,38
1,2791,32.3341,-0.541643,-0.0257511,0,0,0,0,-0.002284039,38
1,2798,32.4378,-0.562192,-0.0262111,0,0,0,0,-0.002284039,38
1,2805,32.5414,-0.582742,-0.0266466,0,0,0,0,-0.002284039,38
1,2812,32.6451,-0.603291,-0.0270822,0,0,0,0,-0.002284039,38
1,2819,32.74874,-0.624147,-0.0275238,0,0,0,0,-0.002284039,38
1,2826,32.8524,-0.645003,-0.0279287,0,0,0,0,-0.002284039,38
1,2833,32.956,-0.666166,-0.0283642,0,0,0,0,-0.002284039,38
1,2840,33.0597,-0.685795,-0.0287629,0,0,0,0,-0.002284039,38
1,2847,33.1633,-0.706958,-0.0291862,0,0,0,0,-0.002284039,38
1,2854,33.267,-0.727507,-0.0296033,0,0,0,0,-0.002284039,38
1,2861,33.3706,-0.74775,-0.0299836,0,0,0,0,-0.002284039,38
1,2868,33.4743,-0.768299,-0.0304191,0,0,0,0,-0.002284039,38
1,2875,33.5779,-0.788848,-0.0308301,0,0,0,0,-0.002284039,38
1,2882,33.6816,-0.809704,-0.031235,0,0,0,0,-0.002284039,38
1,2889,33.78523,-0.83056,-0.0316521,0,0,0,0,-0.002284039,38
1,2896,33.8889,-0.85111,-0.0320753,0,0,0,0,-0.002284039,38
1,2903,33.9925,-0.872273,-0.0324925,0,0,0,0,-0.002284039,38
1,2910,34.0962,-0.892208,-0.0329157,0,0,0,0,-0.002284039,38
1,2917,34.1998,-0.912758,-0.0333758,0,0,0,0,-0.002284039,38
1,2924,34.3035,-0.933921,-0.0338174,0,0,0,0,-0.002284039,38
1,2931,34.4071,-0.954777,-0.0342836,0,0,0,0,-0.002284039,38
1,2938,34.5108,-0.975326,-0.0347744,0,0,0,0,-0.002284039,38
1,2945,34.6144,-0.996182,-0.035259,0,0,0,0,-0.002284039,38
1,2952,34.7181,-1.01642,-0.0357865,0,0,0,0,-0.002284039,38
1,2959,34.82172,-1.03759,-0.0363508,0,0,0,0,-0.002284039,38
1,2966,34.9254,-1.05752,-0.0369213,0,0,0,0,-0.002284039,38
1,2973,35.029,-1.07838,-0.0375225,0,0,0,0,-0.002284039,38
1,2980,35.1327,-1.09893,-0.0381297,0,0,0,0,-0.002284039,38
1,2987,35.2363,-1.11948,-0.0387677,0,0,0,0,-0.002284039,38
1,2994,35.34,-1.14003,-0.0394363,0,0,0,0,-0.002284039,38
2,3001,35.4436,-1.14616,-0.038921,0,0,0,0,-0.002284039,38
2,3008,35.5473,-1.12531,-0.0373507,0,0,0,0,-0.002284039,38
2,3015,35.6509,-1.10476,-0.0361116,0,0,0,0,-0.002284039,38
2,3022,35.7546,-1.08451,-0.0350013,0,0,0,0,-0.002284039,38
2,3029,35.85821,-1.06396,-0.0340199,0,0,0,0,-0.002284039,38
2,3036,35.9619,-1.0428,-0.0332654,0,0,0,0,-0.002284039,38
2,3043,36.0655,-1.02287,-0.0323759,0,0,0,0,-0.002284039,38
2,3050,36.1692,-1.00201,-0.0316766,0,0,0,0,-0.002284039,38
2,3057,36.2728,-0.981153,-0.0309896,0,0,0,0,-0.002284039,38
2,3064,36.3765,-0.960911,-0.0302535,0,0,0,0,-0.002284039,38
2,3071,36.4801,-0.940361,-0.0295481,0,0,0,0,-0.002284039,38
2,3078,36.5838,-0.919812,-0.0288917,0,0,0,0,-0.002284039,38
2,3085,36.6874,-0.898956,-0.0282231,0,0,0,0,-0.002284039,38
2,3092,36.7911,-0.878407,-0.0275606,0,0,0,0,-0.002284039,38
2,3099,36.8947,-0.857857,-0.0269104,0,0,0,0,-0.002284039,38
2,3106,36.9983,-0.837615,-0.0262418,0,0,0,0,-0.002284039,38
2,3113,37.102,-0.817065,-0.0255732,0,0,0,0,-0.002284039,38
2,3120,37.2056,-0.795596,-0.0248862,0,0,0,0,-0.002284039,38
2,3127,37.3093,-0.77566,-0.0242543,0,0,0,0,-0.002284039,38
2,3134,37.4129,-0.754804,-0.0235734,0,0,0,0,-0.002284039,38
2,3141,37.5166,-0.733948,-0.0228803,0,0,0,0,-0.002284039,38
2,3148,37.6202,-0.714012,-0.0221749,0,0,0,0,-0.002284039,38
2,3155,37.7239,-0.693156,-0.0214633,0,0,0,0,-0.002284039,38
2,3162,37.8275,-0.672913,-0.0207518,0,0,0,0,-0.002284039,38
2,3169,37.93119,-0.651751,-0.0200279,0,0,0,0,-0.002284039,38
2,3176,38.0348,-0.631201,-0.0193409,0,0,0,0,-0.002284039,38
2,3183,38.1385,-0.610652,-0.0186477,0,0,0,0,-0.002284039,38
2,3190,38.2421,-0.589796,-0.0179546,0,0,0,0,-0.002284039,38
2,3197,38.3458,-0.569247,-0.0171817,0,0,0,0,-0.002284039,38
2,3204,38.4494,-0.548391,-0.0165253,0,0,0,0,-0.002284039,38
2,3211,38.5531,-0.528148,-0.015869,0,0,0,0,-0.002284039,38
2,3218,38.6567,-0.507599,-0.0151758,0,0,0,0,-0.002284039,38
2,3225,38.7604,-0.487049,-0.0145011,0,0,0,0,-0.002284039,38
2,3232,38.864,-0.46742,-0.0138607,0,0,0,0,-0.002284039,38
2,3239,38.96768,-0.446871,-0.0131859,0,0,0,0,-0.002284039,38
2,3246,39.0713,-0.426322,-0.0125191,0,0,0,0,-0.002284039,38
2,3253,39.175,-0.405159,-0.011826,0,0,0,0,-0.002284039,38
2,3260,39.2786,-0.384609,-0.0111359,0,0,0,0,-0.002284039,38
2,3267,39.3823,-0.36406,-0.0104378,0,0,0,0,-0.002284039,38
2,3274,39.4859,-0.343511,-0.00970971,0,0,0,0,-0.002284039,38
2,3281,39.5896,-0.322041,-0.00894662,0,0,0,0,-0.002284039,38
2,3288,39.6932,-0.302105,-0.00809337,0,0,0,0,-0.002284039,38
2,3295,39.7969,-0.281556,-0.00702725,0,0,0,0,-0.002284039,38
2,3302,39.9005,-0.2607,-0.00579736,0,0,0,0,-0.002284039,38
2,3309,40.00417,-0.240151,-0.00479075,0,0,0,0,-0.002284039,38
2,3316,40.1078,-0.219295,-0.00387554,0,0,0,0,-0.002284039,38
2,3323,40.2115,-0.199052,-0.00306768,0,0,0,0,-0.002284039,38
2,3330,40.3151,-0.178503,-0.00230398,0,0,0,0,-0.002284039,38
2,3337,40.4188,-0.157647,-0.00157034,0,0,0,0,-0.002284039,38
2,3344,40.5224,-0.137404,-0.000837431,0,0,0,0,-0.002284039,38
2,3351,40.6261,-0.116241,-0.00010336,0,0,0,0,-0.002284039,38
2,3358,40.7297,-0.0956921,0.000611757,0,0,0,0,-0.002284039,38
2,3365,40.8334,-0.0754495,0.00130847,0,0,0,0,-0.002284039,38
2,3372,40.937,-0.0545934,0.00198071,0,0,0,0,-0.002284039,38
2,3379,41.04066,-0.0343508,0.00264688,0,0,0,0,-0.002284039,38
2,3386,41.1443,-0.0131881,0.00330875,0,0,0,0,-0.002284039,38
2,3393,41.248,0.00736125,0.0039786,0,0,0,0,-0.002284039,38
2,3400,41.3516,0.0282173,0.00465212,0,0,0,0,-0.002284039,38
2,3407,41.4553,0.0481532,0.00532565,0,0,0,0,-0.002284039,38
2,3414,41.5589,0.0690092,0.00600224,0,0,0,0,-0.002284039,38
2,3421,41.6626,0.0898653,0.00667577,0,0,0,0,-0.002284039,38
2,3428,41.7662,0.109801,0.00732783,0,0,0,0,-0.002284039,38
2,3435,41.8699,0.130964,0.00797621,0,0,0,0,-0.002284039,38
2,3442,41.9735,0.152127,0.00862888,0,0,0,0,-0.002284039,38
2,3449,42.07715,0.172676,0.00925517,0,0,0,0,-0.002284039,38
2,3456,42.1808,0.192919,0.00988515,0,0,0,0,-0.002284039,38
2,3463,42.2844,0.213775,0.0105139,0,0,0,0,-0.002284039,38
2,3470,42.3881,0.234324,0.0111408,0,0,0,0,-0.002284039,38
2,3477,42.4917,0.255487,0.0117751,0,0,0,0,-0.002284039,38
2,3484,42.5954,0.275729,0.0124063,0,0,0,0,-0.002284039,38
2,3491,42.699,0.296585,0.0130412,0,0,0,0,-0.002284039,38
2,3498,42.8027,0.317441,0.0136736,0,0,0,0,-0.002284039,38
2,3505,42.9063,0.337991,0.0143244,0,0,0,0,-0.002284039,38
2,3512,43.01,0.358233,0.0149746,0,0,0,0,-0.002284039,38
2,3519,43.11364,0.379396,0.01565,0,0,0,0,-0.002284039,38
2,3526,43.2173,0.399639,0.0163419,0,0,0,0,-0.002284039,38
2,3533,43.3209,0.420188,0.0170302,0,0,0,0,-0.002284039,38
2,3540,43.4246,0.441044,0.0177289,0,0,0,0,-0.002284039,38
2,3547,43.5282,0.460367,0.018341,0,0,0,0,-0.002284039,38
2,3554,43.6319,0.480916,0.0190833,0,0,0,0,-0.002284039,38
2,3561,43.7355,0.501158,0.0198316,0,0,0,0,-0.002284039,38
2,3568,43.8392,0.522321,0.0205861,0,0,0,0,-0.002284039,38
2,3575,43.9428,0.542564,0.021359,0,0,0,0,-0.002284039,38
2,3582,44.0465,0.56342,0.0221687,0,0,0,0,-0.002284039,38
2,3589,44.15013,0.583969,0.0229968,0,0,0,0,-0.002284039,38
2,3596,44.2538,0.604518,0.0238556,0,0,0,0,-0.002284039,38
2,3603,44.3574,0.625068,0.0247512,0,0,0,0,-0.002284039,38
2,3610,44.4611,0.64531,0.0256713,0,0,0,0,-0.002284039,38
2,3617,44.5647,0.666473,0.0266466,0,0,0,0,-0.002284039,38
2,3624,44.6684,0.687023,0.027622,0,0,0,0,-0.002284039,38
2,3631,44.772,0.707265,0.0286402,0,0,0,0,-0.002284039,38
2,3638,44.8757,0.728121,0.0297321,0,0,0,0,-0.002284039,38
2,3645,44.9793,0.748364,0.0308608,0,0,0,0,-0.002284039,38
2,3652,45.083,0.768913,0.0319895,0,0,0,0,-0.002284039,38
2,3659,45.18662,0.789769,0.0332408,0,0,0,0,-0.002284039,38
2,3666,45.2903,0.810012,0.034621,0,0,0,0,-0.002284039,38
2,3673,45.3939,0.830254,0.0360073,0,0,0,0,-0.002284039,38
2,3680,45.4976,0.850804,0.0374672,0,0,0,0,-0.002284039,38
2,3687,45.6012,0.87166,0.0390621,0,0,0,0,-0.002284039,38
2,3694,45.7049,0.891902,0.040749,0,0,0,0,-0.002284039,38
2,3701,45.8085,0.912452,0.042485,0,0,0,0,-0.002284039,38
2,3708,45.9122,0.932694,0.0442945,0,0,0,0,-0.002284039,38
2,3715,46.0158,0.953244,0.0465458,0,0,0,0,-0.002284039,38
2,3722,46.1195,0.973793,0.0491221,0,0,0,0,-0.002284039,38
2,3729,46.22311,0.993729,0.0519254,0,0,0,0,-0.002284039,38
2,3736,46.3268,1.01397,0.054974,0,0,0,0,-0.002284039,38
2,3743,46.4304,1.03421,0.0582742,0,0,0,0,-0.002284039,38
2,3750,46.5341,1.05415,0.0617584,0,0,0,0,-0.002284039,38
2,3757,46.6377,1.07409,0.0654327,0,0,0,0,-0.002284039,38
2,3764,46.7414,1.09433,0.0693279,0,0,0,0,-0.002284039,38
2,3771,46.845,1.11426,0.0733948,0,0,0,0,-0.002284039,38
2,3778,46.9487,1.13451,0.0775783,0,0,0,0,-0.002284039,38
2,3785,47.0523,1.15414,0.0819458,0,0,0,0,-0.002284039,38
2,3792,47.156,1.17377,0.0864544,0,0,0,0,-0.002284039,38
2,3799,47.2596,1.19401,0.0911041,0,0,0,0,-0.002284039,38
2,3806,47.3632,1.21425,0.0958457,0,0,0,0,-0.002284039,38
2,3813,47.4669,1.23388,0.10063,0,0,0,0,-0.002284039,38
2,3820,47.5705,1.25412,0.105446,0,0,0,0,-0.002284039,38
2,3827,47.6742,1.27345,0.110224,0,0,0,0,-0.002284039,38
2,3834,47.7778,1.29338,0.114984,0,0,0,0,-0.002284039,38
2,3841,47.8815,1.31332,0.119732,0,0,0,0,-0.002284039,38
2,3848,47.9851,1.33325,0.1244,0,0,0,0,-0.002284039,38
2,3855,48.0888,1.35319,0.128982,0,0,0,0,-0.002284039,38
2,3862,48.1924,1.37374,0.133522,0,0,0,0,-0.002284039,38
2,3869,48.29609,1.39337,0.138239,0,0,0,0,-0.002284039,38
2,3876,48.3997,1.41238,0.143496,0,0,0,0,-0.002284039,38
2,3883,48.5034,1.43355,0.147305,0,0,0,0,-0.002284039,38
2,3890,48.607,1.45716,0.129669,0,0,0,0,-0.002284039,38
2,3897,48.7107,1.48446,0.0888038,0,0,0,0,-0.002284039,38
2,3904,48.8143,1.509,0.0642488,0,0,0,0,-0.002284039,38
2,3911,48.918,1.53139,0.0585318,0,0,0,0,-0.002284039,38
2,3918,49.0216,1.5504,0.0670215,0,0,0,0,-0.002284039,38
2,3925,49.1253,1.57279,0.0585257,0,0,0,0,-0.002284039,38
2,3932,49.2289,1.59181,0.0696714,0,0,0,0,-0.002284039,38
2,3939,49.33258,1.61021,0.0768177,0,0,0,0,-0.002284039,38
2,3946,49.4362,1.63106,0.0804184,0,0,0,0,-0.002284039,38
2,3953,49.5399,1.65008,0.0918954,0,0,0,0,-0.002284039,38
2,3960,49.6435,1.66787,0.109408,0,0,0,0,-0.002284039,38
2,3967,49.7472,1.68689,0.114616,0,0,0,0,-0.002284039,38
2,3974,49.8508,1.71112,0.0965757,0,0,0,0,-0.002284039,38
2,3981,49.9545,1.7289,0.112684,0,0,0,0,-0.002284039,38
2,3988,50.0581,1.74792,0.125443,0,0,0,0,-0.002284039,38
2,3995,50.1618,1.76816,0.126289,0,0,0,0,-0.002284039,38
2,4002,50.2654,1.76878,0.1158,0,0,0,0,-0.002284039,38
2,4009,50.36907,1.74577,0.125271,0,0,0,0,-0.002284039,38
2,4016,50.4727,1.72645,0.115794,0,0,0,0,-0.002284039,38
2,4023,50.5764,1.7059,0.116653,0,0,0,0,-0.002284039,38
2,4030,50.68,1.68627,0.113083,0,0,0,0,-0.002284039,38
2,4037,50.7837,1.6648,0.114076,0,0,0,0,-0.002284039,38
2,4044,50.8873,1.64364,0.118879,0,0,0,0,-0.002284039,38
2,4051,50.991,1.62033,0.133663,0,0,0,0,-0.002284039,38
2,4058,51.0946,1.60009,0.12878,0,0,0,0,-0.002284039,38
2,4065,51.1983,1.5823,0.113941,0,0,0,0,-0.002284039,38
2,4072,51.3019,1.56972,0.0643838,0,0,0,0,-0.002284039,38
2,4079,51.40556,1.54427,0.0933001,0,0,0,0,-0.002284039,38
2,4086,51.5092,1.52433,0.0865157,0,0,0,0,-0.002284039,38
2,4093,51.6129,1.49979,0.110335,0,0,0,0,-0.002284039,38
2,4100,51.7165,1.48323,0.0852398,0,0,0,0,-0.002284039,38
2,4107,51.8202,1.4636,0.0810993,0,0,0,0,-0.002284039,38
2,4114,51.9238,1.44275,0.0808662,0,0,0,0,-0.002284039,38
2,4121,52.0275,1.42281,0.0749284,0,0,0,0,-0.002284039,38
2,4128,52.1311,1.40318,0.0673588,0,0,0,0,-0.002284039,38
2,4135,52.2348,1.38325,0.0637581,0,0,0,0,-0.002284039,38
2,4142,52.3384,1.36392,0.056802,0,0,0,0,-0.002284039,38
2,4149,52.44205,1.34521,0.0477787,0,0,0,0,-0.002284039,38
2,4156,52.5457,1.32528,0.0400558,0,0,0,0,-0.002284039,38
2,4163,52.6493,1.30596,0.0317625,0,0,0,0,-0.002284039,38
2,4170,52.753,1.28694,0.0231502,0,0,0,0,-0.002284039,38
2,4177,52.8566,1.26762,0.0142986,0,0,0,0,-0.002284039,38
2,4184,52.9603,1.2486,0.00705057,0,0,0,0,-0.002284039,38
2,4191,53.0639,1.22867,0.00107777,0,0,0,0,-0.002284039,38
2,4198,53.1676,1.20812,-0.00557776,0,0,0,0,-0.002284039,38
2,4205,53.2712,1.18879,-0.0146974,0,0,0,0,-0.002284039,38
2,4212,53.3749,1.17008,-0.0231441,0,0,0,0,-0.002284039,38
2,4219,53.47854,1.15107,-0.0316705,0,0,0,0,-0.002284039,38
2,4226,53.5822,1.13175,-0.03997,0,0,0,0,-0.002284039,38
2,4233,53.6858,1.11242,-0.0476928,0,0,0,0,-0.002284039,38
2,4240,53.7895,1.0931,-0.054833,0,0,0,0,-0.002284039,38
2,4247,53.8931,1.07347,-0.0611818,0,0,0,0,-0.002284039,38
2,4254,53.9968,1.05323,-0.0663099,0,0,0,0,-0.002284039,38
2,4261,54.1004,1.03329,-0.0693034,0,0,0,0,-0.002284039,38
2,4268,54.2041,1.01244,-0.0678618,0,0,0,0,-0.002284039,38
2,4275,54.3077,0.989435,-0.058495,0,0,0,0,-0.002284039,38
2,4282,54.4114,0.966432,-0.0431843,0,0,0,0,-0.002284039,38
2,4289,54.51503,0.943122,-0.0305295,0,0,0,0,-0.002284039,38
2,4296,54.6187,0.921346,-0.0223896,0,0,0,0,-0.002284039,38
2,4303,54.7223,0.899263,-0.015734,0,0,0,0,-0.002284039,38
2,4310,54.826,0.87718,-0.00926744,0,0,0,0,-0.002284039,38
2,4317,54.9296,0.855711,-0.00468218,0,0,0,0,-0.002284039,38
2,4324,55.0333,0.834548,-0.00121026,0,0,0,0,-0.002284039,38
2,4331,55.1369,0.813999,0.000790382,0,0,0,0,-0.002284039,38
2,4338,55.2406,0.793143,0.00221319,0,0,0,0,-0.002284039,38
2,4345,55.3442,0.772594,0.00318545,0,0,0,0,-0.002284039,38
2,4352,55.4479,0.751124,0.00381543,0,0,0,0,-0.002284039,38
2,4359,55.55152,0.731188,0.00443313,0,0,0,0,-0.002284039,38
2,4366,55.6552,0.710025,0.00504287,0,0,0,0,-0.002284039,38
2,4373,55.7588,0.689476,0.00538699,0,0,0,0,-0.002284039,38
2,4380,55.8625,0.668313,0.0057808,0,0,0,0,-0.002284039,38
2,4387,55.9661,0.647457,0.00604948,0,0,0,0,-0.002284039,38
2,4394,56.0698,0.626601,0.00636232,0,0,0,0,-0.002284039,38
2,4401,56.1734,0.606359,0.00658131,0,0,0,0,-0.002284039,38
2,4408,56.2771,0.585503,0.0067684,0,0,0,0,-0.002284039,38
2,4415,56.3807,0.564953,0.00684691,0,0,0,0,-0.002284039,38
2,4422,56.4844,0.544097,0.00690641,0,0,0,0,-0.002284039,38
2,4429,56.58801,0.523241,0.00692236,0,0,0,0,-0.002284039,38
2,4436,56.6917,0.501772,0.00692543,0,0,0,0,-0.002284039,38
2,4443,56.7953,0.481529,0.00692175,0,0,0,0,-0.002284039,38
2,4450,56.899,0.460673,0.00688617,0,0,0,0,-0.002284039,38
2,4457,57.0026,0.440431,0.00686593,0,0,0,0,-0.002284039,38
2,4464,57.1063,0.419881,0.0067868,0,0,0,0,-0.002284039,38
2,4471,57.2099,0.398719,0.00666473,0,0,0,0,-0.002284039,38
2,4478,57.3136,0.378476,0.00649604,0,0,0,0,-0.002284039,38
2,4485,57.4172,0.35762,0.00630834,0,0,0,0,-0.002284039,38
2,4492,57.5209,0.336457,0.00606236,0,0,0,0,-0.002284039,38
2,4499,57.6245,0.316215,0.00578571,0,0,0,0,-0.002284039,38
2,4506,57.7281,0.295359,0.00547839,0,0,0,0,-0.002284039,38
2,4513,57.8318,0.274502,0.00515021,0,0,0,0,-0.002284039,38
2,4520,57.9354,0.25426,0.00484289,0,0,0,0,-0.002284039,38
2,4527,58.0391,0.233711,0.00449816,0,0,0,0,-0.002284039,38
2,4534,58.1427,0.212854,0.00414238,0,0,0,0,-0.002284039,38
2,4541,58.2464,0.192305,0.00377126,0,0,0,0,-0.002284039,38
2,4548,58.35,0.171449,0.0033658,0,0,0,0,-0.002284039,38
2,4555,58.4537,0.150593,0.00292721,0,0,0,0,-0.002284039,38
2,4562,58.5573,0.12943,0.00246531,0,0,0,0,-0.002284039,38
2,4569,58.66099,0.109188,0.0020077,0,0,0,0,-0.002284039,38
2,4576,58.7646,0.0886384,0.00150286,0,0,0,0,-0.002284039,38
2,4583,58.8683,0.0677824,0.0009787,0,0,0,0,-0.002284039,38
2,4590,58.9719,0.0472331,0.000446994,0,0,0,0,-0.002284039,38
2,4597,59.0756,0.0269905,-0.000154243,0,0,0,0,-0.002284039,38
2,4604,59.1792,0.00613442,-0.00079075,0,0,0,0,-0.002284039,38
2,4611,59.2829,-0.0144149,-0.00150274,0,0,0,0,-0.002284039,38
2,4618,59.3865,-0.0352709,-0.00224202,0,0,0,0,-0.002284039,38
2,4625,59.4902,-0.056127,-0.00295113,0,0,0,0,-0.002284039,38
2,4632,59.5938,-0.0763696,-0.00371299,0,0,0,0,-0.002284039,38
2,4639,59.69748,-0.0972256,-0.00456318,0,0,0,0,-0.002284039,38
2,4646,59.8011,-0.118082,-0.005433,0,0,0,0,-0.002284039,38
2,4653,59.9048,-0.138018,-0.00641998,0,0,0,0,-0.002284039,38
2,4660,60.0084,-0.158874,-0.00756154,0,0,0,0,-0.002284039,38
2,4667,60.1121,-0.17973,-0.00881413,0,0,0,0,-0.002284039,38
2,4674,60.2157,-0.200279,-0.0102268,0,0,0,0,-0.002284039,38
2,4681,60.3194,-0.220828,-0.0117873,0,0,0,0,-0.002284039,38
2,4688,60.423,-0.241684,-0.0134883,0,0,0,0,-0.002284039,38
2,4695,60.5267,-0.261313,-0.0153071,0,0,0,0,-0.002284039,38
2,4702,60.6303,-0.282476,-0.0173044,0,0,0,0,-0.002284039,38
2,4709,60.73397,-0.301492,-0.0193532,0,0,0,0,-0.002284039,38
2,4716,60.8376,-0.321428,-0.0215737,0,0,0,0,-0.002284039,38
2,4723,60.9413,-0.342284,-0.0219111,0,0,0,0,-0.002284039,38
2,4730,61.0449,-0.363753,-0.018341,0,0,0,0,-0.002284039,38
2,4737,61.1486,-0.384609,-0.0186048,0,0,0,0,-0.002284039,38
2,4744,61.2522,-0.405465,-0.0191017,0,0,0,0,-0.002284039,38
2,4751,61.3559,-0.425401,-0.0197826,0,0,0,0,-0.002284039,38
2,4758,61.4595,-0.446257,-0.0206352,0,0,0,0,-0.002284039,38
2,4765,61.5632,-0.467113,-0.0216105,0,0,0,0,-0.002284039,38
2,4772,61.6668,-0.487663,-0.0226779,0,0,0,0,-0.002284039,38
2,4779,61.77046,-0.507905,-0.0237145,0,0,0,0,-0.002284039,38
2,4786,61.8741,-0.528455,-0.0246408,0,0,0,0,-0.002284039,38
2,4793,61.9778,-0.548697,-0.0254934,0,0,0,0,-0.002284039,38
2,4800,62.0814,-0.569553,-0.0262663,0,0,0,0,-0.002284039,38
2,4807,62.1851,-0.590409,-0.027027,0,0,0,0,-0.002284039,38
2,4814,62.2887,-0.610959,-0.027714,0,0,0,0,-0.002284039,38
2,4821,62.3924,-0.631201,-0.0282967,0,0,0,0,-0.002284039,38
2,4828,62.496,-0.652671,-0.0287568,0,0,0,0,-0.002284039,38
2,4835,62.5997,-0.67322,-0.029131,0,0,0,0,-0.002284039,38
2,4842,62.7033,-0.693769,-0.0294683,0,0,0,0,-0.002284039,38
2,4849,62.80695,-0.714012,-0.0298548,0,0,0,0,-0.002284039,38
2,4856,62.9106,-0.734868,-0.0302535,0,0,0,0,-0.002284039,38
2,4863,63.0142,-0.755417,-0.0307197,0,0,0,0,-0.002284039,38
2,4870,63.1179,-0.776273,-0.0312043,0,0,0,0,-0.002284039,38
2,4877,63.2215,-0.796516,-0.0317134,0,0,0,0,-0.002284039,38
2,4884,63.3252,-0.817372,-0.0322042,0,0,0,0,-0.002284039,38
2,4891,63.4288,-0.837921,-0.0327624,0,0,0,0,-0.002284039,38
2,4898,63.5325,-0.858777,-0.0333574,0,0,0,0,-0.002284039,38
2,4905,63.6361,-0.879327,-0.0339095,0,0,0,0,-0.002284039,38
2,4912,63.7398,-0.899569,-0.0345474,0,0,0,0,-0.002284039,38
2,4919,63.84344,-0.919812,-0.0351915,0,0,0,0,-0.002284039,38
2,4926,63.9471,-0.940975,-0.0358294,0,0,0,0,-0.002284039,38
2,4933,64.0507,-0.961217,-0.0365655,0,0,0,0,-0.002284039,38
2,4940,64.1544,-0.98238,-0.037363,0,0,0,0,-0.002284039,38
2,4947,64.258,-1.00324,-0.0381788,0,0,0,0,-0.002284039,38
2,4954,64.3617,-1.02409,-0.0390499,0,0,0,0,-0.002284039,38
2,4961,64.4653,-1.04403,-0.0400129,0,0,0,0,-0.002284039,38
2,4968,64.569,-1.06458,-0.0410066,0,0,0,0,-0.002284039,38
2,4975,64.6726,-1.08482,-0.0421476,0,0,0,0,-0.002284039,38
2,4982,64.7763,-1.10568,-0.0433928,0,0,0,0,-0.002284039,38
2,4989,64.87993,-1.12623,-0.0447055,0,0,0,0,-0.002284039,38
2,4996,64.9836,-1.14647,-0.0461593,0,0,0,0,-0.002284039,38
3,5003,65.0872,-1.13727,-0.0439019,0,0,0,0,-0.002284039,38
3,5010,65.1909,-1.11733,-0.0419084,0,0,0,0,-0.002284039,38
3,5017,65.2945,-1.09739,-0.0402767,0,0,0,0,-0.002284039,38
3,5024,65.3982,-1.07654,-0.0388413,0,0,0,0,-0.002284039,38
3,5031,65.5018,-1.05538,-0.0375715,0,0,0,0,-0.002284039,38
3,5038,65.6055,-1.03513,-0.0363999,0,0,0,0,-0.002284039,38
3,5045,65.7091,-1.01458,-0.0353571,0,0,0,0,-0.002284039,38
3,5052,65.8128,-0.993728,-0.0343818,0,0,0,0,-0.002284039,38
3,5059,65.91642,-0.973486,-0.033431,0,0,0,0,-0.002284039,38
3,5066,66.0201,-0.95263,-0.0326152,0,0,0,0,-0.002284039,38
3,5073,66.1237,-0.932387,-0.0318484,0,0,0,0,-0.002284039,38
3,5080,66.2274,-0.912144,-0.0310939,0,0,0,0,-0.002284039,38
3,5087,66.331,-0.891288,-0.0304069,0,0,0,0,-0.002284039,38
3,5094,66.4347,-0.870126,-0.0297382,0,0,0,0,-0.002284039,38
3,5101,66.5383,-0.849883,-0.0291003,0,0,0,0,-0.002284039,38
3,5108,66.642,-0.829334,-0.0284501,0,0,0,0,-0.002284039,38
3,5115,66.7456,-0.809091,-0.0277999,0,0,0,0,-0.002284039,38
3,5122,66.8493,-0.787928,-0.0271742,0,0,0,0,-0.002284039,38
3,5129,66.95291,-0.767686,-0.0265424,0,0,0,0,-0.002284039,38
3,5136,67.0566,-0.74683,-0.0258983,0,0,0,0,-0.002284039,38
3,5143,67.1602,-0.726587,-0.0252542,0,0,0,0,-0.002284039,38
3,5150,67.2639,-0.705118,-0.0245917,0,0,0,0,-0.002284039,38
3,5157,67.3675,-0.685488,-0.023917,0,0,0,0,-0.002284039,38
3,5164,67.4712,-0.664632,-0.0232483,0,0,0,0,-0.002284039,38
3,5171,67.5748,-0.643776,-0.0225613,0,0,0,0,-0.002284039,38
3,5178,67.6785,-0.623534,-0.021862,0,0,0,0,-0.002284039,38
3,5185,67.7821,-0.602371,-0.0211505,0,0,0,0,-0.002284039,38
3,5192,67.8858,-0.581822,-0.0204389,0,0,0,0,-0.002284039,38
3,5199,67.9894,-0.561272,-0.0197274,0,0,0,0,-0.002284039,38
3,5206,68.093,-0.540723,-0.0189974,0,0,0,0,-0.002284039,38
3,5213,68.1967,-0.520174,-0.0182674,0,0,0,0,-0.002284039,38
3,5220,68.3003,-0.499624,-0.0175191,0,0,0,0,-0.002284039,38
3,5227,68.404,-0.479382,-0.0167768,0,0,0,0,-0.002284039,38
3,5234,68.5076,-0.458832,-0.0160162,0,0,0,0,-0.002284039,38
3,5241,68.6113,-0.43767,-0.0152249,0,0,0,0,-0.002284039,38
3,5248,68.7149,-0.41712,-0.0143968,0,0,0,0,-0.002284039,38
3,5255,68.8186,-0.397491,-0.0135049,0,0,0,0,-0.002284039,38
3,5262,68.9222,-0.376942,-0.0123928,0,0,0,0,-0.002284039,38
3,5269,69.02589,-0.356392,-0.0110641,0,0,0,0,-0.002284039,38
3,5276,69.1295,-0.335536,-0.00984773,0,0,0,0,-0.002284039,38
3,5283,69.2332,-0.315294,-0.00876199,0,0,0,0,-0.002284039,38
3,5290,69.3368,-0.294744,-0.00773943,0,0,0,0,-0.002284039,38
3,5297,69.4405,-0.273888,-0.00674693,0,0,0,0,-0.002284039,38
3,5304,69.5441,-0.253339,-0.00577037,0,0,0,0,-0.002284039,38
3,5311,69.6478,-0.232483,-0.00480057,0,0,0,0,-0.002284039,38
3,5318,69.7514,-0.212547,-0.00382769,0,0,0,0,-0.002284039,38
3,5325,69.8551,-0.191998,-0.00286525,0,0,0,0,-0.002284039,38
3,5332,69.9587,-0.171142,-0.00192796,0,0,0,0,-0.002284039,38
3,5339,70.06238,-0.150286,-0.00102041,0,0,0,0,-0.002284039,38
3,5346,70.166,-0.129736,-0.000145195,0,0,0,0,-0.002284039,38
3,5353,70.2697,-0.109187,0.000682115,0,0,0,0,-0.002284039,38
3,5360,70.3733,-0.0889445,0.00146692,0,0,0,0,-0.002284039,38
3,5367,70.477,-0.0677818,0.00221074,0,0,0,0,-0.002284039,38
3,5374,70.5806,-0.0472325,0.00291616,0,0,0,0,-0.002284039,38
3,5381,70.6843,-0.0263765,0.00360012,0,0,0,0,-0.002284039,38
3,5384,70.7287,-0.0180954,0.00389026,0,0,0,0,-0.002284039,38