File: Feb25/CV02.11.25/secondelectrode-1.18CV_650_FLiNaK_Ni_02_11_25_200mVperS_sh15.csv
Segment,Point,Elapsed Time (s),Potential (V),Current (A),Frequency (Hz),|Z| (ohms),Zre (ohms),Zim (ohms),Phase of Z (deg),ActionId
0,0,0.0059,-0.000613119,-0.000136957,0,0,0,0,-0.002284039,38
0,11,0.0708,-0.0141082,-0.000367066,0,0,0,0,-0.002284039,38
0,21,0.1298,-0.025763,-0.000468709,0,0,0,0,-0.002284039,38
0,31,0.1888,-0.0374179,-0.00054606,0,0,0,0,-0.002284039,38
0,42,0.2537,-0.050913,-0.000620406,0,0,0,0,-0.002284039,38
0,52,0.3127,-0.0625678,-0.000673343,0,0,0,0,-0.002284039,38
0,62,0.3717,-0.0739159,-0.000732415,0,0,0,0,-0.002284039,38
0,72,0.4307,-0.0855708,-0.000783021,0,0,0,0,-0.002284039,38
0,82,0.4897,-0.0969189,-0.000834671,0,0,0,0,-0.002284039,38
0,92,0.5487,-0.109494,-0.000888835,0,0,0,0,-0.002284039,38
0,102,0.6077,-0.120535,-0.000936436,0,0,0,0,-0.002284039,38
0,112,0.6667,-0.13311,-0.000993483,0,0,0,0,-0.002284039,38
0,122,0.7257,-0.144765,-0.00104501,0,0,0,0,-0.002284039,38
0,132,0.7847,-0.15642,-0.00109727,0,0,0,0,-0.002284039,38
0,143,0.8496,-0.169608,-0.00116002,0,0,0,0,-0.002284039,38
0,153,0.9086,-0.181877,-0.00120965,0,0,0,0,-0.002284039,38
0,163,0.9676,-0.192918,-0.00126222,0,0,0,0,-0.002284039,38
0,173,1.0266,-0.204573,-0.00131307,0,0,0,0,-0.002284039,38
0,183,1.0856,-0.216534,-0.00136355,0,0,0,0,-0.002284039,38
0,193,1.1446,-0.229109,-0.00141649,0,0,0,0,-0.002284039,38
0,203,1.2036,-0.239844,-0.00146489,0,0,0,0,-0.002284039,38
0,213,1.2626,-0.252112,-0.00151629,0,0,0,0,-0.002284039,38
0,223,1.3216,-0.264074,-0.00156359,0,0,0,0,-0.002284039,38
0,233,1.3806,-0.275729,-0.00160953,0,0,0,0,-0.002284039,38
0,244,1.4455,-0.287997,-0.00166094,0,0,0,0,-0.002284039,38
0,254,1.5045,-0.300265,-0.00170553,0,0,0,0,-0.002284039,38
0,264,1.5635,-0.31284,-0.00174896,0,0,0,0,-0.002284039,38
0,274,1.6225,-0.324188,-0.00179736,0,0,0,0,-0.002284039,38
0,284,1.6874,-0.336763,-0.00184637,0,0,0,0,-0.002284039,38
0,294,1.7464,-0.349032,-0.00189544,0,0,0,0,-0.002284039,38
0,304,1.8054,-0.360073,-0.00194145,0,0,0,0,-0.002284039,38
0,314,1.8644,-0.372341,-0.00198378,0,0,0,0,-0.002284039,38
0,324,1.9234,-0.384303,-0.0020304,0,0,0,0,-0.002284039,38
0,334,1.9824,-0.396264,-0.00207333,0,0,0,0,-0.002284039,38
0,344,2.0414,-0.407919,-0.0021175,0,0,0,0,-0.002284039,38
0,354,2.1004,-0.419267,-0.00215921,0,0,0,0,-0.002284039,38
0,364,2.1594,-0.431842,-0.00219602,0,0,0,0,-0.002284039,38
0,374,2.2184,-0.442884,-0.00223466,0,0,0,0,-0.002284039,38
0,385,2.2833,-0.456379,-0.0022776,0,0,0,0,-0.002284039,38
0,395,2.3423,-0.468034,-0.00231441,0,0,0,0,-0.002284039,38
0,405,2.4013,-0.479688,-0.0023506,0,0,0,0,-0.002284039,38
0,415,2.4603,-0.491343,-0.00239108,0,0,0,0,-0.002284039,38
0,425,2.5193,-0.503305,-0.00242911,0,0,0,0,-0.002284039,38
0,435,2.5783,-0.515266,-0.0024696,0,0,0,0,-0.002284039,38
0,445,2.6373,-0.526308,-0.00250395,0,0,0,0,-0.002284039,38
0,455,2.6963,-0.538576,-0.00254075,0,0,0,0,-0.002284039,38
0,465,2.7553,-0.550538,-0.00258492,0,0,0,0,-0.002284039,38
0,476,2.8202,-0.563113,-0.00262663,0,0,0,0,-0.002284039,38
0,486,2.8792,-0.575381,-0.00266896,0,0,0,0,-0.002284039,38
0,496,2.9382,-0.587036,-0.00270944,0,0,0,0,-0.002284039,38
0,506,2.9972,-0.598384,-0.00275852,0,0,0,0,-0.002284039,38
0,516,3.0562,-0.610345,-0.00280207,0,0,0,0,-0.002284039,38
0,526,3.1152,-0.622614,-0.00285053,0,0,0,0,-0.002284039,38
0,536,3.1742,-0.633962,-0.00290267,0,0,0,0,-0.002284039,38
0,546,3.2332,-0.645923,-0.00294929,0,0,0,0,-0.002284039,38
0,556,3.2922,-0.657885,-0.00301124,0,0,0,0,-0.002284039,38
0,566,3.3512,-0.669846,-0.0030597,0,0,0,0,-0.002284039,38
0,577,3.4161,-0.682421,-0.00312656,0,0,0,0,-0.002284039,38
0,587,3.4751,-0.694076,-0.00319343,0,0,0,0,-0.002284039,38
0,597,3.5341,-0.706038,-0.00325538,0,0,0,0,-0.002284039,38
0,607,3.5931,-0.717386,-0.00332654,0,0,0,0,-0.002284039,38
0,618,3.658,-0.730881,-0.00339524,0,0,0,0,-0.002284039,38
0,628,3.717,-0.742842,-0.00346455,0,0,0,0,-0.002284039,38
0,638,3.776,-0.754497,-0.00353755,0,0,0,0,-0.002284039,38
0,648,3.835,-0.765845,-0.00360503,0,0,0,0,-0.002284039,38
0,658,3.894,-0.778114,-0.00367373,0,0,0,0,-0.002284039,38
0,668,3.953,-0.790075,-0.0037363,0,0,0,0,-0.002284039,38
0,678,4.012,-0.80173,-0.0037958,0,0,0,0,-0.002284039,38
0,688,4.071,-0.813078,-0.00384058,0,0,0,0,-0.002284039,38
0,698,4.13,-0.82504,-0.00389149,0,0,0,0,-0.002284039,38
0,708,4.189,-0.837001,-0.00393381,0,0,0,0,-0.002284039,38
0,719,4.2539,-0.849883,-0.00398411,0,0,0,0,-0.002284039,38
0,729,4.3129,-0.861845,-0.00402767,0,0,0,0,-0.002284039,38
0,739,4.3719,-0.873499,-0.00406999,0,0,0,0,-0.002284039,38
0,749,4.4309,-0.885154,-0.00412336,0,0,0,0,-0.002284039,38
0,759,4.4899,-0.897116,-0.00415648,0,0,0,0,-0.002284039,38
0,769,4.5489,-0.909077,-0.00420801,0,0,0,0,-0.002284039,38
0,779,4.6079,-0.920425,-0.00424911,0,0,0,0,-0.002284039,38
0,789,4.6669,-0.932387,-0.00429634,0,0,0,0,-0.002284039,38
0,799,4.7259,-0.944655,-0.00433376,0,0,0,0,-0.002284039,38
0,809,4.7849,-0.956003,-0.00438774,0,0,0,0,-0.002284039,38
0,820,4.8498,-0.968885,-0.00443129,0,0,0,0,-0.002284039,38
0,830,4.9088,-0.98054,-0.00446319,0,0,0,0,-0.002284039,38
0,840,4.9678,-0.992808,-0.00449877,0,0,0,0,-0.002284039,38
0,850,5.0268,-1.00416,-0.00453189,0,0,0,0,-0.002284039,38
0,860,5.0858,-1.01581,-0.00457115,0,0,0,0,-0.002284039,38
0,870,5.1448,-1.02808,-0.00460243,0,0,0,0,-0.002284039,38
0,880,5.2038,-1.04004,-0.00462697,0,0,0,0,-0.002284039,38
0,890,5.2628,-1.05139,-0.00467052,0,0,0,0,-0.002284039,38
0,900,5.3218,-1.06366,-0.00468341,0,0,0,0,-0.002284039,38
0,910,5.3808,-1.07531,-0.00473002,0,0,0,0,-0.002284039,38
0,920,5.4398,-1.08697,-0.00475701,0,0,0,0,-0.002284039,38
0,930,5.4988,-1.09832,-0.00479934,0,0,0,0,-0.002284039,38
0,940,5.5578,-1.11028,-0.00482817,0,0,0,0,-0.002284039,38
0,951,5.6227,-1.12347,-0.00488154,0,0,0,0,-0.002284039,38
0,961,5.6817,-1.13543,-0.00491159,0,0,0,0,-0.002284039,38
0,971,5.7407,-1.14739,-0.00495944,0,0,0,0,-0.002284039,38
0,981,5.7997,-1.15904,-0.00500177,0,0,0,0,-0.002284039,38
0,991,5.8587,-1.1707,-0.00504961,0,0,0,0,-0.002284039,38
1,1001,5.944721,-1.171,-0.00471162,0,0,0,0,-0.002284039,38
1,1011,6.093791,-1.14125,-0.00441902,0,0,0,0,-0.002284039,38
1,1021,6.242861,-1.11089,-0.00418593,0,0,0,0,-0.002284039,38
1,1031,6.391931,-1.08145,-0.0039743,0,0,0,0,-0.002284039,38
1,1041,6.541001,-1.0517,-0.00378598,0,0,0,0,-0.002284039,38
1,1051,6.690071,-1.02225,-0.00360871,0,0,0,0,-0.002284039,38
1,1061,6.839141,-0.992501,-0.00343756,0,0,0,0,-0.002284039,38
1,1071,6.988211,-0.962751,-0.00327317,0,0,0,0,-0.002284039,38
1,1081,7.137281,-0.932694,-0.00310509,0,0,0,0,-0.002284039,38
1,1091,7.286351,-0.902943,-0.00293334,0,0,0,0,-0.002284039,38
1,1101,7.435421,-0.872886,-0.00274747,0,0,0,0,-0.002284039,38
1,1111,7.584491,-0.842829,-0.00254566,0,0,0,0,-0.002284039,38
1,1121,7.733561,-0.813692,-0.0023187,0,0,0,0,-0.002284039,38
1,1131,7.882631,-0.783634,-0.0020764,0,0,0,0,-0.002284039,38
1,1141,8.031701,-0.753577,-0.00184883,0,0,0,0,-0.002284039,38
1,1151,8.180771,-0.724133,-0.0016648,0,0,0,0,-0.002284039,38
1,1161,8.329841,-0.694383,-0.00149918,0,0,0,0,-0.002284039,38
1,1171,8.478911,-0.664632,-0.00133546,0,0,0,0,-0.002284039,38
1,1181,8.627981,-0.634882,-0.00119174,0,0,0,0,-0.002284039,38
1,1191,8.777051,-0.605438,-0.00107366,0,0,0,0,-0.002284039,38
1,1201,8.926121,-0.575688,-0.000968701,0,0,0,0,-0.002284039,38
1,1211,9.075191,-0.545324,-0.000930854,0,0,0,0,-0.002284039,38
1,1221,9.224261,-0.516186,-0.000942815,0,0,0,0,-0.002284039,38
1,1231,9.373331,-0.486129,-0.000890675,0,0,0,0,-0.002284039,38
1,1241,9.522401,-0.456072,-0.000774495,0,0,0,0,-0.002284039,38
1,1251,9.671471,-0.426628,-0.0006174,0,0,0,0,-0.002284039,38
1,1261,9.820541,-0.396878,-0.000448957,0,0,0,0,-0.002284039,38
1,1271,9.969611,-0.366514,-0.000284562,0,0,0,0,-0.002284039,38
1,1281,10.1187,-0.336763,-0.000154887,0,0,0,0,-0.002284039,38
1,1291,10.2678,-0.307626,-4.30677e-05,0,0,0,0,-0.002284039,38
1,1301,10.4168,-0.277569,8.30315e-05,0,0,0,0,-0.002284039,38
1,1311,10.5659,-0.247512,0.000210646,0,0,0,0,-0.002284039,38
1,1321,10.715,-0.217761,0.000334249,0,0,0,0,-0.002284039,38
1,1331,10.864,-0.188624,0.000431045,0,0,0,0,-0.002284039,38
1,1341,11.0131,-0.158567,0.00053281,0,0,0,0,-0.002284039,38
1,1351,11.1622,-0.12851,0.000623105,0,0,0,0,-0.002284039,38
1,1361,11.3112,-0.097839,0.000732906,0,0,0,0,-0.002284039,38
1,1371,11.4603,-0.0690086,0.000855588,0,0,0,0,-0.002284039,38
1,1381,11.6094,-0.0398715,0.00100765,0,0,0,0,-0.002284039,38
1,1391,11.7585,-0.0092009,0.00122014,0,0,0,0,-0.002284039,38
1,1401,11.9075,0.0205496,0.00160647,0,0,0,0,-0.002284039,38
1,1412,12.0715,0.0530605,0.00238127,0,0,0,0,-0.002284039,38
1,1423,12.2355,0.0858781,0.00373507,0,0,0,0,-0.002284039,38
1,1433,12.3845,0.115629,0.00564953,0,0,0,0,-0.002284039,38
1,1443,12.5336,0.144766,0.00740635,0,0,0,0,-0.002284039,38
1,1453,12.6827,0.174516,0.00812342,0,0,0,0,-0.002284039,38
1,1463,12.8318,0.20488,0.00701683,0,0,0,0,-0.002284039,38
1,1473,12.9808,0.234631,0.0057716,0,0,0,0,-0.002284039,38
1,1483,13.1299,0.264688,0.005479,0,0,0,0,-0.002284039,38
1,1493,13.279,0.294132,0.00566425,0,0,0,0,-0.002284039,38
1,1503,13.428,0.323882,0.0062059,0,0,0,0,-0.002284039,38
1,1513,13.5771,0.354553,0.00687206,0,0,0,0,-0.002284039,38
1,1523,13.7262,0.38369,0.00750142,0,0,0,0,-0.002284039,38
1,1533,13.8752,0.413134,0.00805534,0,0,0,0,-0.002284039,38
1,1543,14.0243,0.443191,0.00854668,0,0,0,0,-0.002284039,38
1,1553,14.1734,0.472941,0.00894908,0,0,0,0,-0.002284039,38
1,1563,14.3225,0.502385,0.00925885,0,0,0,0,-0.002284039,38
1,1573,14.4715,0.532443,0.00956188,0,0,0,0,-0.002284039,38
1,1583,14.6206,0.56158,0.00958519,0,0,0,0,-0.002284039,38
1,1593,14.7697,0.591944,0.00979007,0,0,0,0,-0.002284039,38
1,1603,14.9187,0.621387,0.00977228,0,0,0,0,-0.002284039,38
1,1613,15.0678,0.651138,0.00969928,0,0,0,0,-0.002284039,38
1,1623,15.2169,0.681195,0.00980847,0,0,0,0,-0.002284039,38
1,1633,15.3659,0.711252,0.0100219,0,0,0,0,-0.002284039,38
1,1643,15.515,0.741616,0.0101115,0,0,0,0,-0.002284039,38
1,1653,15.6641,0.770447,0.0103556,0,0,0,0,-0.002284039,38
1,1663,15.8132,0.800504,0.0109071,0,0,0,0,-0.002284039,38
1,1673,15.9622,0.829641,0.0116849,0,0,0,0,-0.002284039,38
1,1683,16.1113,0.860005,0.0126516,0,0,0,0,-0.002284039,38
1,1693,16.2604,0.889449,0.0137202,0,0,0,0,-0.002284039,38
1,1703,16.4094,0.919506,0.0149427,0,0,0,0,-0.002284039,38
1,1713,16.5585,0.94895,0.0165437,0,0,0,0,-0.002284039,38
1,1723,16.7076,0.978393,0.0181086,0,0,0,0,-0.002284039,38
1,1733,16.8566,1.00661,0.020353,0,0,0,0,-0.002284039,38
1,1743,17.0057,1.03605,0.0237084,0,0,0,0,-0.002284039,38
1,1753,17.1548,1.06519,0.0274502,0,0,0,0,-0.002284039,38
1,1763,17.3039,1.09433,0.0315355,0,0,0,0,-0.002284039,38
1,1773,17.4529,1.12316,0.035854,0,0,0,0,-0.002284039,38
1,1783,17.602,1.15199,0.0407858,0,0,0,0,-0.002284039,38
1,1793,17.7511,1.18113,0.0464415,0,0,0,0,-0.002284039,38
1,1803,17.9001,1.20996,0.052778,0,0,0,0,-0.002284039,38
1,1813,18.0492,1.23879,0.059317,0,0,0,0,-0.002284039,38
1,1824,18.2132,1.27007,0.0672546,0,0,0,0,-0.002284039,38
1,1835,18.3772,1.30074,0.0761674,0,0,0,0,-0.002284039,38
1,1845,18.5262,1.32957,0.0842093,0,0,0,0,-0.002284039,38
1,1855,18.6753,1.3584,0.0922511,0,0,0,0,-0.002284039,38
1,1865,18.8244,1.38662,0.100158,0,0,0,0,-0.002284039,38
1,1875,18.9734,1.41453,0.108605,0,0,0,0,-0.002284039,38
1,1885,19.1225,1.44489,0.108188,0,0,0,0,-0.002284039,38
1,1895,19.2716,1.48354,0.0565935,0,0,0,0,-0.002284039,38
1,1905,19.4206,1.51789,0.031738,0,0,0,0,-0.002284039,38
1,1915,19.5697,1.5458,0.0427426,0,0,0,0,-0.002284039,38
1,1925,19.7188,1.5731,0.0571578,0,0,0,0,-0.002284039,38
1,1935,19.8679,1.60101,0.065261,0,0,0,0,-0.002284039,38
1,1945,20.0169,1.62646,0.089227,0,0,0,0,-0.002284039,38
1,1955,20.166,1.6556,0.0960052,0,0,0,0,-0.002284039,38
1,1965,20.3151,1.6875,0.0852582,0,0,0,0,-0.002284039,38
1,1975,20.4641,1.71786,0.0826083,0,0,0,0,-0.002284039,38
1,1985,20.6132,1.74639,0.0903496,0,0,0,0,-0.002284039,38
1,1995,20.7623,1.7743,0.100888,0,0,0,0,-0.002284039,38
1,2005,20.9113,1.76172,0.0950728,0,0,0,0,-0.002284039,38
1,2015,21.0604,1.7335,0.0872886,0,0,0,0,-0.002284039,38
1,2025,21.2095,1.70099,0.100655,0,0,0,0,-0.002284039,38
1,2035,21.3586,1.67063,0.101508,0,0,0,0,-0.002284039,38
1,2045,21.5076,1.64241,0.0923615,0,0,0,0,-0.002284039,38
1,2055,21.6567,1.61542,0.0768667,0,0,0,0,-0.002284039,38
1,2065,21.8058,1.58659,0.0724992,0,0,0,0,-0.002284039,38
1,2075,21.9548,1.55776,0.0670767,0,0,0,0,-0.002284039,38
1,2085,22.1039,1.52924,0.0577773,0,0,0,0,-0.002284039,38
1,2095,22.253,1.50071,0.0499563,0,0,0,0,-0.002284039,38
1,2105,22.402,1.47219,0.0425463,0,0,0,0,-0.002284039,38
1,2115,22.5511,1.44397,0.0320569,0,0,0,0,-0.002284039,38
1,2125,22.7002,1.41698,0.0205493,0,0,0,0,-0.002284039,38
1,2135,22.8493,1.38938,0.00845589,0,0,0,0,-0.002284039,38
1,2145,22.9983,1.36086,-0.00564892,0,0,0,0,-0.002284039,38
1,2155,23.1474,1.33264,-0.0184429,0,0,0,0,-0.002284039,38
1,2165,23.2965,1.30534,-0.0271926,0,0,0,0,-0.002284039,38
1,2175,23.4455,1.27743,-0.038326,0,0,0,0,-0.002284039,38
1,2185,23.5946,1.25014,-0.05241,0,0,0,0,-0.002284039,38
1,2195,23.7437,1.22284,-0.0655922,0,0,0,0,-0.002284039,38
1,2205,23.8927,1.19523,-0.0786456,0,0,0,0,-0.002284039,38
1,2215,24.0418,1.16702,-0.0907789,0,0,0,0,-0.002284039,38
1,2225,24.1909,1.13911,-0.101692,0,0,0,0,-0.002284039,38
1,2235,24.34,1.11058,-0.10874,0,0,0,0,-0.002284039,38
1,2245,24.489,1.08053,-0.105826,0,0,0,0,-0.002284039,38
1,2257,24.6679,1.04004,-0.0772716,0,0,0,0,-0.002284039,38
1,2267,24.817,1.00937,-0.0721557,0,0,0,0,-0.002284039,38
1,2277,24.9661,0.979007,-0.0699658,0,0,0,0,-0.002284039,38
1,2287,25.1151,0.946189,-0.0518579,0,0,0,0,-0.002284039,38
1,2297,25.2642,0.913985,-0.0359889,0,0,0,0,-0.002284039,38
1,2307,25.4133,0.882394,-0.027579,0,0,0,0,-0.002284039,38
1,2317,25.5623,0.851417,-0.0216596,0,0,0,0,-0.002284039,38
1,2327,25.7114,0.821053,-0.0176417,0,0,0,0,-0.002284039,38
1,2337,25.8605,0.790383,-0.0148875,0,0,0,0,-0.002284039,38
1,2347,26.0095,0.759712,-0.0126412,0,0,0,0,-0.002284039,38
1,2357,26.1586,0.729961,-0.0107838,0,0,0,0,-0.002284039,38
1,2367,26.3077,0.699597,-0.00933123,0,0,0,0,-0.002284039,38
1,2377,26.4568,0.669847,-0.00812342,0,0,0,0,-0.002284039,38
1,2387,26.6058,0.639483,-0.00709534,0,0,0,0,-0.002284039,38
1,2397,26.7549,0.609733,-0.00628564,0,0,0,0,-0.002284039,38
1,2407,26.904,0.579675,-0.00560843,0,0,0,0,-0.002284039,38
1,2417,27.053,0.549925,-0.00501158,0,0,0,0,-0.002284039,38
1,2427,27.2021,0.519868,-0.00446932,0,0,0,0,-0.002284039,38
1,2437,27.3512,0.490424,-0.00393443,0,0,0,0,-0.002284039,38
1,2447,27.5002,0.460673,-0.00342652,0,0,0,0,-0.002284039,38
1,2457,27.6493,0.430923,-0.00296156,0,0,0,0,-0.002284039,38
1,2467,27.7984,0.400865,-0.00257081,0,0,0,0,-0.002284039,38
1,2477,27.9475,0.370195,-0.00226901,0,0,0,0,-0.002284039,38
1,2487,28.0965,0.341364,-0.00202119,0,0,0,0,-0.002284039,38
1,2497,28.2456,0.311307,-0.00186171,0,0,0,0,-0.002284039,38
1,2507,28.3947,0.281557,-0.00172553,0,0,0,0,-0.002284039,38
1,2517,28.5437,0.251806,-0.00162738,0,0,0,0,-0.002284039,38
1,2527,28.6928,0.221749,-0.00155929,0,0,0,0,-0.002284039,38
1,2537,28.8419,0.191998,-0.00151022,0,0,0,0,-0.002284039,38
1,2547,28.9909,0.161635,-0.00150654,0,0,0,0,-0.002284039,38
1,2557,29.14,0.132497,-0.00154703,0,0,0,0,-0.002284039,38
1,2567,29.2891,0.10244,-0.00157647,0,0,0,0,-0.002284039,38
1,2577,29.4382,0.0729964,-0.00161389,0,0,0,0,-0.002284039,38
1,2587,29.5872,0.0435526,-0.00168443,0,0,0,0,-0.002284039,38
1,2597,29.7363,0.0134954,-0.00180895,0,0,0,0,-0.002284039,38
1,2607,29.8854,-0.0165618,-0.00201077,0,0,0,0,-0.002284039,38
1,2617,30.0344,-0.0460057,-0.00228005,0,0,0,0,-0.002284039,38
1,2627,30.1835,-0.0763696,-0.00279409,0,0,0,0,-0.002284039,38
1,2637,30.3326,-0.105507,-0.00319895,0,0,0,0,-0.002284039,38
1,2647,30.4816,-0.135564,-0.00335905,0,0,0,0,-0.002284039,38
1,2657,30.6307,-0.165621,-0.00350013,0,0,0,0,-0.002284039,38
1,2668,30.79469,-0.198439,-0.00363508,0,0,0,0,-0.002284039,38
1,2679,30.9587,-0.230643,-0.00375347,0,0,0,0,-0.002284039,38
1,2689,31.1077,-0.2607,-0.00385959,0,0,0,0,-0.002284039,38
1,2699,31.2568,-0.290451,-0.00398657,0,0,0,0,-0.002284039,38
1,2709,31.4059,-0.320201,-0.00411845,0,0,0,0,-0.002284039,38
1,2719,31.5549,-0.349952,-0.00426874,0,0,0,0,-0.002284039,38
1,2729,31.704,-0.380009,-0.00440369,0,0,0,0,-0.002284039,38
1,2739,31.8531,-0.410373,-0.0045233,0,0,0,0,-0.002284039,38
1,2749,32.0022,-0.43951,-0.00464783,0,0,0,0,-0.002284039,38
1,2759,32.1512,-0.468954,-0.00476744,0,0,0,0,-0.002284039,38
1,2769,32.3003,-0.499318,-0.0048981,0,0,0,0,-0.002284039,38
1,2779,32.4494,-0.528455,-0.00503612,0,0,0,0,-0.002284039,38
1,2789,32.5984,-0.558205,-0.00519438,0,0,0,0,-0.002284039,38
1,2799,32.7475,-0.588569,-0.00536552,0,0,0,0,-0.002284039,38
1,2809,32.8966,-0.61832,-0.00556979,0,0,0,0,-0.002284039,38
1,2819,33.0456,-0.647457,-0.00580595,0,0,0,0,-0.002284039,38
1,2829,33.1947,-0.677514,-0.00607217,0,0,0,0,-0.002284039,38
1,2839,33.3438,-0.707571,-0.00639667,0,0,0,0,-0.002284039,38
1,2849,33.4929,-0.737628,-0.00677821,0,0,0,0,-0.002284039,38
1,2859,33.6419,-0.767072,-0.00723766,0,0,0,0,-0.002284039,38
1,2869,33.791,-0.796209,-0.00777378,0,0,0,0,-0.002284039,38
1,2879,33.9401,-0.826267,-0.00842768,0,0,0,0,-0.002284039,38
1,2889,34.0891,-0.856017,-0.00920119,0,0,0,0,-0.002284039,38
1,2899,34.2382,-0.885461,-0.0101452,0,0,0,0,-0.002284039,38
1,2909,34.3873,-0.915518,-0.0112966,0,0,0,0,-0.002284039,38
1,2919,34.5363,-0.945575,-0.0127504,0,0,0,0,-0.002284039,38
1,2929,34.6854,-0.974712,-0.014625,0,0,0,0,-0.002284039,38
1,2939,34.8345,-1.00446,-0.0171026,0,0,0,0,-0.002284039,38
1,2949,34.9836,-1.03268,-0.0202242,0,0,0,0,-0.002284039,38
1,2959,35.1326,-1.06028,-0.0320753,0,0,0,0,-0.002284039,38
1,2969,35.2817,-1.08635,-0.0532626,0,0,0,0,-0.002284039,38
1,2979,35.4308,-1.11273,-0.0742597,0,0,0,0,-0.002284039,38
1,2989,35.5798,-1.1388,-0.0942202,0,0,0,0,-0.002284039,38
2,2999,35.7289,-1.1569,-0.108617,0,0,0,0,-0.002284039,38
2,3009,35.878,-1.12899,-0.0969928,0,0,0,0,-0.002284039,38
2,3019,36.027,-1.102,-0.0851539,0,0,0,0,-0.002284039,38
2,3029,36.1761,-1.07378,-0.0728796,0,0,0,0,-0.002284039,38
2,3039,36.3252,-1.04648,-0.0603414,0,0,0,0,-0.002284039,38
2,3049,36.4743,-1.01857,-0.0478217,0,0,0,0,-0.002284039,38
2,3059,36.6233,-0.991275,-0.0357865,0,0,0,0,-0.002284039,38
2,3069,36.7724,-0.962751,-0.0232177,0,0,0,0,-0.002284039,38
2,3079,36.9215,-0.935761,-0.0110831,0,0,0,0,-0.002284039,38
2,3090,37.0854,-0.904783,0.00351854,0,0,0,0,-0.002284039,38
2,3101,37.2494,-0.873499,0.0178865,0,0,0,0,-0.002284039,38
2,3111,37.3985,-0.847123,0.0307872,0,0,0,0,-0.002284039,38
2,3121,37.5476,-0.819519,0.0442148,0,0,0,0,-0.002284039,38
2,3131,37.6966,-0.790382,0.047748,0,0,0,0,-0.002284039,38
2,3141,37.8457,-0.757258,0.0301431,0,0,0,0,-0.002284039,38
2,3151,37.9948,-0.7272,0.0268736,0,0,0,0,-0.002284039,38
2,3161,38.1438,-0.697143,0.0255486,0,0,0,0,-0.002284039,38
2,3171,38.2929,-0.667086,0.0250702,0,0,0,0,-0.002284039,38
2,3181,38.442,-0.637335,0.0241501,0,0,0,0,-0.002284039,38
2,3191,38.5911,-0.607278,0.0229294,0,0,0,0,-0.002284039,38
2,3201,38.7401,-0.573847,0.00392461,0,0,0,0,-0.002284039,38
2,3211,38.8892,-0.543177,-0.00346701,0,0,0,0,-0.002284039,38
2,3221,39.0383,-0.513119,-0.0025199,0,0,0,0,-0.002284039,38
2,3231,39.1873,-0.483982,-0.00231379,0,0,0,0,-0.002284039,38
2,3241,39.3364,-0.453925,-0.00208806,0,0,0,0,-0.002284039,38
2,3251,39.4855,-0.424175,-0.0018433,0,0,0,0,-0.002284039,38
2,3261,39.6345,-0.395037,-0.0015961,0,0,0,0,-0.002284039,38
2,3271,39.7836,-0.36498,-0.00134853,0,0,0,0,-0.002284039,38
2,3281,39.9327,-0.335536,-0.00110647,0,0,0,0,-0.002284039,38
2,3291,40.0818,-0.305479,-0.00089362,0,0,0,0,-0.002284039,38
2,3301,40.2308,-0.275422,-0.000689844,0,0,0,0,-0.002284039,38
2,3311,40.3799,-0.246285,-0.000494779,0,0,0,0,-0.002284039,38
2,3321,40.529,-0.215614,-0.000331365,0,0,0,0,-0.002284039,38
2,3331,40.678,-0.185864,-0.00019801,0,0,0,0,-0.002284039,38
2,3341,40.8271,-0.15642,-8.04859e-05,0,0,0,0,-0.002284039,38
2,3351,40.9762,-0.125749,3.2106e-05,0,0,0,0,-0.002284039,38
2,3361,41.1252,-0.0972256,0.00016502,0,0,0,0,-0.002284039,38
2,3371,41.2743,-0.0668617,0.000322716,0,0,0,0,-0.002284039,38
2,3381,41.4234,-0.0371112,0.000529375,0,0,0,0,-0.002284039,38
2,3391,41.5725,-0.00736066,0.000727692,0,0,0,0,-0.002284039,38
2,3401,41.7215,0.0223899,0.000896319,0,0,0,0,-0.002284039,38
2,3411,41.8706,0.0521404,0.0010336,0,0,0,0,-0.002284039,38
2,3421,42.0197,0.0818909,0.00116512,0,0,0,0,-0.002284039,38
2,3431,42.1687,0.111335,0.00130068,0,0,0,0,-0.002284039,38
2,3441,42.3178,0.141699,0.00145636,0,0,0,0,-0.002284039,38
2,3451,42.4669,0.171449,0.00162554,0,0,0,0,-0.002284039,38
2,3461,42.6159,0.2012,0.00181828,0,0,0,0,-0.002284039,38
2,3471,42.765,0.23095,0.00206352,0,0,0,0,-0.002284039,38
2,3481,42.9141,0.260701,0.00231931,0,0,0,0,-0.002284039,38
2,3491,43.0632,0.290145,0.00254321,0,0,0,0,-0.002284039,38
2,3501,43.2122,0.319895,0.00278305,0,0,0,0,-0.002284039,38
2,3513,43.3911,0.35578,0.00307504,0,0,0,0,-0.002284039,38
2,3523,43.5402,0.38553,0.00326397,0,0,0,0,-0.002284039,38
2,3533,43.6892,0.415281,0.00343634,0,0,0,0,-0.002284039,38
2,3543,43.8383,0.445645,0.00360625,0,0,0,0,-0.002284039,38
2,3553,43.9874,0.474475,0.0037774,0,0,0,0,-0.002284039,38
2,3563,44.1365,0.504839,0.00395774,0,0,0,0,-0.002284039,38
2,3573,44.2855,0.535203,0.00418654,0,0,0,0,-0.002284039,38
2,3583,44.4346,0.56434,0.00439449,0,0,0,0,-0.002284039,38
2,3593,44.5837,0.593784,0.00463372,0,0,0,0,-0.002284039,38
2,3603,44.7327,0.623841,0.00492509,0,0,0,0,-0.002284039,38
2,3613,44.8818,0.653592,0.00530541,0,0,0,0,-0.002284039,38
2,3623,45.0309,0.683342,0.00582251,0,0,0,0,-0.002284039,38
2,3633,45.1799,0.712786,0.0064758,0,0,0,0,-0.002284039,38
2,3643,45.329,0.743456,0.00728244,0,0,0,0,-0.002284039,38
2,3653,45.4781,0.77198,0.00823261,0,0,0,0,-0.002284039,38
2,3663,45.6272,0.802037,0.00927296,0,0,0,0,-0.002284039,38
2,3673,45.7762,0.832095,0.0103213,0,0,0,0,-0.002284039,38
2,3683,45.9253,0.861845,0.0113886,0,0,0,0,-0.002284039,38
2,3693,46.0744,0.890982,0.0123958,0,0,0,0,-0.002284039,38
2,3703,46.2234,0.921039,0.0132693,0,0,0,0,-0.002284039,38
2,3713,46.3725,0.950483,0.0139251,0,0,0,0,-0.002284039,38
2,3723,46.5216,0.981461,0.0142907,0,0,0,0,-0.002284039,38
2,3733,46.6706,1.01029,0.0144802,0,0,0,0,-0.002284039,38
2,3743,46.8197,1.04035,0.0144772,0,0,0,0,-0.002284039,38
2,3753,46.9688,1.06979,0.0143827,0,0,0,0,-0.002284039,38
2,3763,47.1179,1.09924,0.0143968,0,0,0,0,-0.002284039,38
2,3773,47.2669,1.12899,0.0144563,0,0,0,0,-0.002284039,38
2,3783,47.416,1.15904,0.0144686,0,0,0,0,-0.002284039,38
2,3793,47.5651,1.1891,0.0145722,0,0,0,0,-0.002284039,38
2,3803,47.7141,1.21854,0.0148066,0,0,0,0,-0.002284039,38
2,3813,47.8632,1.24891,0.0150979,0,0,0,0,-0.002284039,38
2,3823,48.0123,1.27835,0.0155555,0,0,0,0,-0.002284039,38
2,3833,48.1613,1.30902,0.0161407,0,0,0,0,-0.002284039,38
2,3843,48.3104,1.33755,0.0169081,0,0,0,0,-0.002284039,38
2,3853,48.4595,1.36699,0.0177969,0,0,0,0,-0.002284039,38
2,3863,48.6086,1.39643,0.0192796,0,0,0,0,-0.002284039,38
2,3873,48.7576,1.42496,0.0238188,0,0,0,0,-0.002284039,38
2,3883,48.9067,1.4541,0.0294806,0,0,0,0,-0.002284039,38
2,3893,49.0558,1.48323,0.0355718,0,0,0,0,-0.002284039,38
2,3903,49.2048,1.51114,0.0420617,0,0,0,0,-0.002284039,38
2,3913,49.3539,1.53997,0.0489442,0,0,0,0,-0.002284039,38
2,3924,49.5179,1.57187,0.0566916,0,0,0,0,-0.002284039,38
2,3935,49.6819,1.60346,0.0647457,0,0,0,0,-0.002284039,38
2,3945,49.8309,1.63168,0.0722539,0,0,0,0,-0.002284039,38
2,3955,49.98,1.65959,0.0798663,0,0,0,0,-0.002284039,38
2,3965,50.1291,1.68811,0.0875953,0,0,0,0,-0.002284039,38
2,3975,50.2781,1.71694,0.0955452,0,0,0,0,-0.002284039,38
2,3985,50.4272,1.74516,0.103851,0,0,0,0,-0.002284039,38
2,3995,50.5763,1.77368,0.112248,0,0,0,0,-0.002284039,38
2,4005,50.7253,1.75896,0.100066,0,0,0,0,-0.002284039,38
2,4015,50.8744,1.73136,0.0841418,0,0,0,0,-0.002284039,38
2,4025,51.0235,1.70467,0.0685918,0,0,0,0,-0.002284039,38
2,4035,51.1726,1.67768,0.0532933,0,0,0,0,-0.002284039,38
2,4045,51.3216,1.64977,0.0397859,0,0,0,0,-0.002284039,38
2,4055,51.4707,1.62186,0.0282415,0,0,0,0,-0.002284039,38
2,4065,51.6198,1.59395,0.0183165,0,0,0,0,-0.002284039,38
2,4075,51.7688,1.56604,0.00884787,0,0,0,0,-0.002284039,38
2,4085,51.9179,1.53721,-0.00404484,0,0,0,0,-0.002284039,38
2,4095,52.067,1.5093,-0.0167498,0,0,0,0,-0.002284039,38
2,4105,52.216,1.48231,-0.0267939,0,0,0,0,-0.002284039,38
2,4115,52.3651,1.45379,-0.0339708,0,0,0,0,-0.002284039,38
2,4125,52.5142,1.42434,-0.0383628,0,0,0,0,-0.002284039,38
2,4135,52.6633,1.39551,-0.0411048,0,0,0,0,-0.002284039,38
2,4145,52.8123,1.36515,-0.0372771,0,0,0,0,-0.002284039,38
2,4155,52.9614,1.33325,-0.0279655,0,0,0,0,-0.002284039,38
2,4165,53.1105,1.30228,-0.0199911,0,0,0,0,-0.002284039,38
2,4175,53.2595,1.2716,-0.0151574,0,0,0,0,-0.002284039,38
2,4185,53.4086,1.24063,-0.0120646,0,0,0,0,-0.002284039,38
2,4195,53.5577,1.21026,-0.00979007,0,0,0,0,-0.002284039,38
2,4205,53.7067,1.18082,-0.00780813,0,0,0,0,-0.002284039,38
2,4215,53.8558,1.15046,-0.00611143,0,0,0,0,-0.002284039,38
2,4225,54.0049,1.12009,-0.0047607,0,0,0,0,-0.002284039,38
2,4235,54.154,1.09095,-0.00368232,0,0,0,0,-0.002284039,38
2,4245,54.303,1.06028,-0.00273398,0,0,0,0,-0.002284039,38
2,4255,54.4521,1.03053,-0.00183472,0,0,0,0,-0.002284039,38
2,4265,54.6012,1.0014,-0.00120744,0,0,0,0,-0.002284039,38
2,4275,54.7502,0.971033,-0.000658192,0,0,0,0,-0.002284039,38
2,4285,54.8993,0.941895,-0.000210891,0,0,0,0,-0.002284039,38
2,4295,55.0484,0.911532,0.000155083,0,0,0,0,-0.002284039,38
2,4305,55.1974,0.881781,0.000482572,0,0,0,0,-0.002284039,38
2,4315,55.3465,0.852337,0.000762901,0,0,0,0,-0.002284039,38
2,4325,55.4956,0.821667,0.00102593,0,0,0,0,-0.002284039,38
2,4335,55.6447,0.792223,0.00123597,0,0,0,0,-0.002284039,38
2,4346,55.8086,0.759098,0.00139932,0,0,0,0,-0.002284039,38
2,4357,55.9726,0.726281,0.00151249,0,0,0,0,-0.002284039,38
2,4367,56.1217,0.69653,0.00157199,0,0,0,0,-0.002284039,38
2,4377,56.2708,0.667087,0.0015877,0,0,0,0,-0.002284039,38
2,4387,56.4198,0.636723,0.00158635,0,0,0,0,-0.002284039,38
2,4397,56.5689,0.607279,0.00155555,0,0,0,0,-0.002284039,38
2,4407,56.718,0.577528,0.00152593,0,0,0,0,-0.002284039,38
2,4417,56.867,0.548084,0.00148115,0,0,0,0,-0.002284039,38
2,4427,57.0161,0.518334,0.0014425,0,0,0,0,-0.002284039,38
2,4437,57.1652,0.488584,0.00100183,0,0,0,0,-0.002284039,38
2,4447,57.3142,0.45822,0.000554525,0,0,0,0,-0.002284039,38
2,4457,57.4633,0.428776,0.000275545,0,0,0,0,-0.002284039,38
2,4467,57.6124,0.398105,9.75388e-05,0,0,0,0,-0.002284039,38
2,4477,57.7615,0.368968,-5.16309e-05,0,0,0,0,-0.002284039,38
2,4487,57.9105,0.339524,-0.000194532,0,0,0,0,-0.002284039,38
2,4497,58.0596,0.309774,-0.000335659,0,0,0,0,-0.002284039,38
2,4507,58.2087,0.279716,-0.000477051,0,0,0,0,-0.002284039,38
2,4517,58.3577,0.249966,-0.000618688,0,0,0,0,-0.002284039,38
2,4527,58.5068,0.219602,-0.000770692,0,0,0,0,-0.002284039,38
2,4537,58.6559,0.190158,-0.000913433,0,0,0,0,-0.002284039,38
2,4547,58.8049,0.160714,-0.00106286,0,0,0,0,-0.002284039,38
2,4557,58.954,0.130657,-0.00121732,0,0,0,0,-0.002284039,38
2,4567,59.1031,0.100293,-0.00135497,0,0,0,0,-0.002284039,38
2,4577,59.2522,0.0714629,-0.00148526,0,0,0,0,-0.002284039,38
2,4587,59.4012,0.0414056,-0.00161432,0,0,0,0,-0.002284039,38
2,4597,59.5503,0.0116551,-0.00174221,0,0,0,0,-0.002284039,38
2,4607,59.6994,-0.0184021,-0.00186661,0,0,0,0,-0.002284039,38
2,4617,59.8484,-0.0481526,-0.00199972,0,0,0,0,-0.002284039,38
2,4627,59.9975,-0.0779031,-0.0021359,0,0,0,0,-0.002284039,38
2,4637,60.1466,-0.107347,-0.00227883,0,0,0,0,-0.002284039,38
2,4647,60.2956,-0.137404,-0.00243157,0,0,0,0,-0.002284039,38
2,4657,60.4447,-0.166848,-0.00259167,0,0,0,0,-0.002284039,38
2,4667,60.5938,-0.196598,-0.00274441,0,0,0,0,-0.002284039,38
2,4677,60.7429,-0.226656,-0.00290758,0,0,0,0,-0.002284039,38
2,4687,60.8919,-0.256406,-0.00307749,0,0,0,0,-0.002284039,38
2,4697,61.041,-0.285543,-0.00324986,0,0,0,0,-0.002284039,38
2,4707,61.1901,-0.315907,-0.00342898,0,0,0,0,-0.002284039,38
2,4717,61.3391,-0.345658,-0.00361484,0,0,0,0,-0.002284039,38
2,4727,61.4882,-0.375715,-0.00380623,0,0,0,0,-0.002284039,38
2,4737,61.6373,-0.405159,-0.003997,0,0,0,0,-0.002284039,38
2,4747,61.7863,-0.435216,-0.00419206,0,0,0,0,-0.002284039,38
2,4757,61.9354,-0.464967,-0.00437425,0,0,0,0,-0.002284039,38
2,4768,62.09939,-0.497171,-0.00458097,0,0,0,0,-0.002284039,38
2,4779,62.2634,-0.529988,-0.00478585,0,0,0,0,-0.002284039,38
2,4789,62.4124,-0.560045,-0.00495515,0,0,0,0,-0.002284039,38
2,4799,62.5615,-0.590103,-0.00512322,0,0,0,0,-0.002284039,38
2,4809,62.7106,-0.619547,-0.0052962,0,0,0,0,-0.002284039,38
2,4819,62.8596,-0.64991,-0.005479,0,0,0,0,-0.002284039,38
2,4829,63.0087,-0.679661,-0.00567591,0,0,0,0,-0.002284039,38
2,4839,63.1578,-0.709411,-0.00588815,0,0,0,0,-0.002284039,38
2,4849,63.3069,-0.739162,-0.00612983,0,0,0,0,-0.002284039,38
2,4859,63.4559,-0.768912,-0.00640341,0,0,0,0,-0.002284039,38
2,4869,63.605,-0.798356,-0.00672239,0,0,0,0,-0.002284039,38
2,4879,63.7541,-0.828414,-0.00709534,0,0,0,0,-0.002284039,38
2,4889,63.9031,-0.858164,-0.00754252,0,0,0,0,-0.002284039,38
2,4899,64.0522,-0.887608,-0.00807067,0,0,0,0,-0.002284039,38
2,4909,64.2013,-0.917358,-0.00872457,0,0,0,0,-0.002284039,38
2,4919,64.3503,-0.946802,-0.0095171,0,0,0,0,-0.002284039,38
2,4929,64.4994,-0.976553,-0.010493,0,0,0,0,-0.002284039,38
2,4939,64.6485,-1.00692,-0.011715,0,0,0,0,-0.002284039,38
2,4949,64.7976,-1.03605,-0.0132534,0,0,0,0,-0.002284039,38
2,4959,64.9466,-1.0658,-0.0152501,0,0,0,0,-0.002284039,38
2,4969,65.0957,-1.09525,-0.017819,0,0,0,0,-0.002284039,38
2,4979,65.2448,-1.12285,-0.0255241,0,0,0,0,-0.002284039,38
2,4989,65.3938,-1.14862,-0.0464844,0,0,0,0,-0.002284039,38
3,4999,65.5429,-1.16334,-0.0603966,0,0,0,0,-0.002284039,38
3,5009,65.692,-1.13573,-0.0501526,0,0,0,0,-0.002284039,38
3,5019,65.841,-1.10721,-0.0392523,0,0,0,0,-0.002284039,38
3,5029,65.9901,-1.07961,-0.0277876,0,0,0,0,-0.002284039,38
3,5039,66.1392,-1.052,-0.0159181,0,0,0,0,-0.002284039,38
3,5049,66.2883,-1.0244,-0.00401724,0,0,0,0,-0.002284039,38
3,5059,66.4373,-0.996182,0.0084835,0,0,0,0,-0.002284039,38
3,5069,66.5864,-0.968272,0.0202058,0,0,0,0,-0.002284039,38
3,5079,66.7355,-0.940361,0.0305418,0,0,0,0,-0.002284039,38
3,5089,66.8845,-0.904477,-0.0094165,0,0,0,0,-0.002284039,38
3,5099,67.0336,-0.87442,-0.00824549,0,0,0,0,-0.002284039,38
3,5109,67.1827,-0.845282,-0.00705056,0,0,0,0,-0.002284039,38
3,5119,67.3317,-0.815532,-0.00609241,0,0,0,0,-0.002284039,38
3,5129,67.4808,-0.785781,-0.00535693,0,0,0,0,-0.002284039,38
3,5139,67.6299,-0.756338,-0.00480118,0,0,0,0,-0.002284039,38
3,5149,67.779,-0.725974,-0.00438651,0,0,0,0,-0.002284039,38
3,5159,67.928,-0.696837,-0.00406202,0,0,0,0,-0.002284039,38
3,5169,68.0771,-0.666473,-0.00382217,0,0,0,0,-0.002284039,38
3,5179,68.2262,-0.637029,-0.00361668,0,0,0,0,-0.002284039,38
3,5190,68.3901,-0.602984,-0.00341303,0,0,0,0,-0.002284039,38
3,5201,68.5541,-0.571394,-0.00320569,0,0,0,0,-0.002284039,38
3,5211,68.7032,-0.541643,-0.00297505,0,0,0,0,-0.002284039,38
3,5221,68.8523,-0.512199,-0.00280698,0,0,0,0,-0.002284039,38
3,5231,69.0013,-0.482142,-0.00259719,0,0,0,0,-0.002284039,38
3,5241,69.1504,-0.452392,-0.00238065,0,0,0,0,-0.002284039,38
3,5251,69.2995,-0.422334,-0.00216167,0,0,0,0,-0.002284039,38
3,5261,69.4485,-0.392891,-0.00195188,0,0,0,0,-0.002284039,38
3,5271,69.5976,-0.36314,-0.001747,0,0,0,0,-0.002284039,38
3,5281,69.7467,-0.333389,-0.00154151,0,0,0,0,-0.002284039,38
3,5291,69.8958,-0.303332,-0.00132626,0,0,0,0,-0.002284039,38
3,5301,70.0448,-0.273582,-0.00113211,0,0,0,0,-0.002284039,38
3,5311,70.1939,-0.243525,-0.000990416,0,0,0,0,-0.002284039,38
3,5321,70.343,-0.213774,-0.000856201,0,0,0,0,-0.002284039,38
3,5331,70.492,-0.184637,-0.000634085,0,0,0,0,-0.002284039,38
3,5341,70.6411,-0.153966,-0.000325661,0,0,0,0,-0.002284039,38
3,5351,70.7902,-0.124829,-1.2716e-05,0,0,0,0,-0.002284039,38
3,5361,70.9392,-0.0953854,0.000248616,0,0,0,0,-0.002284039,38
3,5371,71.0883,-0.0656349,0.000450429,0,0,0,0,-0.002284039,38
3,5381,71.2374,-0.0352709,0.000645249,0,0,0,0,-0.002284039,38
3,5391,71.3865,-0.00552042,0.000849515,0,0,0,0,-0.002284039,38
3,5401,71.5355,0.0239234,0.00105636,0,0,0,0,-0.002284039,38
3,5411,71.6846,0.0536739,0.0012064,0,0,0,0,-0.002284039,38
3,5421,71.8337,0.0837311,0.0012405,0,0,0,0,-0.002284039,38
3,5431,71.9827,0.113482,0.00133074,0,0,0,0,-0.002284039,38
3,5441,72.1318,0.143539,0.00146526,0,0,0,0,-0.002284039,38
3,5451,72.2809,0.172983,0.00164891,0,0,0,0,-0.002284039,38
3,5461,72.4299,0.202426,0.00187827,0,0,0,0,-0.002284039,38
3,5471,72.579,0.23279,0.00210094,0,0,0,0,-0.002284039,38
3,5481,72.7281,0.262234,0.00234201,0,0,0,0,-0.002284039,38
3,5491,72.8772,0.291985,0.00259596,0,0,0,0,-0.002284039,38
3,5501,73.0262,0.321429,0.00283458,0,0,0,0,-0.002284039,38
3,5511,73.1753,0.352099,0.00304559,0,0,0,0,-0.002284039,38
3,5521,73.3244,0.381543,0.00324005,0,0,0,0,-0.002284039,38
3,5531,73.4734,0.4116,0.00339217,0,0,0,0,-0.002284039,38
3,5541,73.6225,0.441351,0.0035259,0,0,0,0,-0.002284039,38
3,5551,73.7716,0.471101,0.00367925,0,0,0,0,-0.002284039,38
3,5561,73.9206,0.500238,0.00385407,0,0,0,0,-0.002284039,38
3,5571,74.0697,0.530296,0.00406263,0,0,0,0,-0.002284039,38
3,5581,74.2188,0.560046,0.00426567,0,0,0,0,-0.002284039,38
3,5591,74.3679,0.59041,0.00450613,0,0,0,0,-0.002284039,38
3,5602,74.5318,0.622921,0.00483063,0,0,0,0,-0.002284039,38
3,5613,74.6958,0.655125,0.00528455,0,0,0,0,-0.002284039,38
3,5623,74.8449,0.685182,0.00582619,0,0,0,0,-0.002284039,38
3,5633,74.9939,0.714933,0.00650708,0,0,0,0,-0.002284039,38
3,5643,75.143,0.74499,0.00730759,0,0,0,0,-0.002284039,38
3,5653,75.2921,0.774127,0.00819335,0,0,0,0,-0.002284039,38
3,5663,75.4412,0.803878,0.00912574,0,0,0,0,-0.002284039,38
3,5673,75.5902,0.833321,0.0101931,0,0,0,0,-0.002284039,38
3,5683,75.7393,0.863685,0.0113549,0,0,0,0,-0.002284039,38
3,5693,75.8884,0.893129,0.0125112,0,0,0,0,-0.002284039,38
3,5703,76.0374,0.922573,0.0136171,0,0,0,0,-0.002284039,38
3,5713,76.1865,0.95263,0.0145103,0,0,0,0,-0.002284039,38
3,5723,76.3356,0.981767,0.015204,0,0,0,0,-0.002284039,38
3,5733,76.4846,1.01182,0.0156353,0,0,0,0,-0.002284039,38
3,5743,76.6337,1.04158,0.0157438,0,0,0,0,-0.002284039,38
3,5753,76.7828,1.07194,0.0157757,0,0,0,0,-0.002284039,38
3,5763,76.9319,1.10169,0.0158641,0,0,0,0,-0.002284039,38
3,5773,77.0809,1.13113,0.0162119,0,0,0,0,-0.002284039,38
3,5783,77.23,1.16088,0.0163965,0,0,0,0,-0.002284039,38
3,5793,77.3791,1.19033,0.0165253,0,0,0,0,-0.002284039,38
3,5803,77.5281,1.22038,0.0165161,0,0,0,0,-0.002284039,38
3,5813,77.6772,1.25044,0.0164352,0,0,0,0,-0.002284039,38
3,5823,77.8263,1.28019,0.0166499,0,0,0,0,-0.002284039,38
3,5833,77.9753,1.30964,0.0168247,0,0,0,0,-0.002284039,38
3,5843,78.1244,1.33969,0.0171676,0,0,0,0,-0.002284039,38
3,5853,78.2735,1.36944,0.0177742,0,0,0,0,-0.002284039,38
3,5863,78.4226,1.39797,0.0184821,0,0,0,0,-0.002284039,38
3,5873,78.5716,1.42741,0.0213774,0,0,0,0,-0.002284039,38
3,5883,78.7207,1.45624,0.025518,0,0,0,0,-0.002284039,38
3,5893,78.8698,1.48507,0.0306829,0,0,0,0,-0.002284039,38
3,5903,79.0188,1.51421,0.0366453,0,0,0,0,-0.002284039,38
3,5913,79.1679,1.54273,0.0434051,0,0,0,0,-0.002284039,38
3,5923,79.317,1.57156,0.0505268,0,0,0,0,-0.002284039,38
3,5933,79.466,1.60009,0.058127,0,0,0,0,-0.002284039,38
3,5943,79.6151,1.62861,0.0658683,0,0,0,0,-0.002284039,38
3,5953,79.7642,1.65652,0.0738181,0,0,0,0,-0.002284039,38
3,5963,79.9133,1.68535,0.0827494,0,0,0,0,-0.002284039,38
3,5973,80.0623,1.71326,0.0908771,0,0,0,0,-0.002284039,38
3,5983,80.2114,1.74179,0.100262,0,0,0,0,-0.002284039,38
3,5993,80.3605,1.77031,0.109727,0,0,0,0,-0.002284039,38
3,6003,80.5095,1.76264,0.101244,0,0,0,0,-0.002284039,38
3,6013,80.6586,1.73688,0.0794308,0,0,0,0,-0.002284039,38
3,6023,80.8077,1.71173,0.051588,0,0,0,0,-0.002284039,38
3,6034,80.9717,1.68167,0.0349093,0,0,0,0,-0.002284039,38
3,6044,81.1207,1.65284,0.0279287,0,0,0,0,-0.002284039,38
3,6054,81.2698,1.62401,0.0230336,0,0,0,0,-0.002284039,38
3,6064,81.4189,1.59457,0.0188624,0,0,0,0,-0.002284039,38
3,6074,81.5679,1.56696,0.0106151,0,0,0,0,-0.002284039,38
3,6084,81.717,1.53875,-0.00178804,0,0,0,0,-0.002284039,38
3,6094,81.8661,1.51022,-0.014898,0,0,0,0,-0.002284039,38
3,6104,82.0151,1.48293,-0.0244752,0,0,0,0,-0.002284039,38
3,6114,82.1642,1.4541,-0.0306829,0,0,0,0,-0.002284039,38
3,6124,82.3133,1.42557,-0.034756,0,0,0,0,-0.002284039,38
3,6134,82.4624,1.39551,-0.0364735,0,0,0,0,-0.002284039,38
3,6144,82.6114,1.36515,-0.0330691,0,0,0,0,-0.002284039,38
3,6154,82.7605,1.33417,-0.0250947,0,0,0,0,-0.002284039,38
3,6164,82.9096,1.3032,-0.0177399,0,0,0,0,-0.002284039,38
3,6174,83.0586,1.2716,-0.0128663,0,0,0,0,-0.002284039,38
3,6184,83.2077,1.24155,-0.009787,0,0,0,0,-0.002284039,38
3,6194,83.3568,1.21118,-0.00769771,0,0,0,0,-0.002284039,38
3,6204,83.5058,1.18143,-0.00603782,0,0,0,0,-0.002284039,38
3,6214,83.6549,1.15138,-0.00455459,0,0,0,0,-0.002284039,38
3,6224,83.804,1.12163,-0.00334555,0,0,0,0,-0.002284039,38
3,6234,83.9531,1.09157,-0.00230643,0,0,0,0,-0.002284039,38
3,6244,84.1021,1.06182,-0.0014268,0,0,0,0,-0.002284039,38
3,6254,84.2512,1.03237,-0.000653346,0,0,0,0,-0.002284039,38
3,6264,84.4003,1.00201,-3.60993e-05,0,0,0,0,-0.002284039,38
3,6274,84.5493,0.972259,0.000462697,0,0,0,0,-0.002284039,38
3,6284,84.6984,0.942202,0.000881842,0,0,0,0,-0.002284039,38
3,6294,84.8475,0.912452,0.001234,0,0,0,0,-0.002284039,38
3,6304,84.9965,0.882394,0.00150973,0,0,0,0,-0.002284039,38
3,6314,85.1456,0.852337,0.00175804,0,0,0,0,-0.002284039,38
3,6324,85.2947,0.823507,0.00194207,0,0,0,0,-0.002284039,38
3,6334,85.4438,0.79345,0.00208131,0,0,0,0,-0.002284039,38
3,6344,85.5928,0.763086,0.00218866,0,0,0,0,-0.002284039,38
3,6354,85.7419,0.734255,0.00227147,0,0,0,0,-0.002284039,38
3,6364,85.891,0.703585,0.00224202,0,0,0,0,-0.002284039,38
3,6374,86.04,0.674141,0.00119112,0,0,0,0,-0.002284039,38
3,6384,86.1891,0.644697,0.000896871,0,0,0,0,-0.002284039,38
3,6394,86.3382,0.61464,0.000745971,0,0,0,0,-0.002284039,38
3,6404,86.4872,0.585196,0.000635557,0,0,0,0,-0.002284039,38
3,6414,86.6363,0.554832,0.00054471,0,0,0,0,-0.002284039,38
3,6424,86.7854,0.525388,0.000474965,0,0,0,0,-0.002284039,38
3,6434,86.9345,0.495331,0.000417734,0,0,0,0,-0.002284039,38
3,6445,87.0984,0.462513,0.000365778,0,0,0,0,-0.002284039,38
3,6456,87.2624,0.429696,0.000311675,0,0,0,0,-0.002284039,38
3,6466,87.4115,0.399945,0.000245365,0,0,0,0,-0.002284039,38
3,6476,87.5605,0.369888,0.000170161,0,0,0,0,-0.002284039,38
3,6486,87.7096,0.340444,7.13583e-05,0,0,0,0,-0.002284039,38
3,6496,87.8587,0.310694,-3.61177e-05,0,0,0,0,-0.002284039,38
3,6506,88.0078,0.28033,-0.000153819,0,0,0,0,-0.002284039,38
3,6516,88.1568,0.2515,-0.000282354,0,0,0,0,-0.002284039,38
3,6526,88.3059,0.221442,-0.000427978,0,0,0,0,-0.002284039,38
3,6536,88.455,0.191692,-0.00057078,0,0,0,0,-0.002284039,38
3,6546,88.604,0.161328,-0.000720269,0,0,0,0,-0.002284039,38
3,6556,88.7531,0.131577,-0.000891534,0,0,0,0,-0.002284039,38
3,6566,88.9022,0.101827,-0.00106016,0,0,0,0,-0.002284039,38
3,6576,89.0512,0.0726897,-0.00124118,0,0,0,0,-0.002284039,38
3,6586,89.2003,0.0423258,-0.00143539,0,0,0,0,-0.002284039,38
3,6596,89.3494,0.0131887,-0.0016345,0,0,0,0,-0.002284039,38
3,6606,89.4985,-0.0168686,-0.0018292,0,0,0,0,-0.002284039,38
3,6616,89.6475,-0.0466191,-0.00202549,0,0,0,0,-0.002284039,38
3,6626,89.7966,-0.0763696,-0.00222485,0,0,0,0,-0.002284039,38
3,6636,89.9457,-0.105813,-0.00241255,0,0,0,0,-0.002284039,38
3,6646,90.0947,-0.136177,-0.0026021,0,0,0,0,-0.002284039,38
3,6656,90.2438,-0.166541,-0.00278735,0,0,0,0,-0.002284039,38
3,6666,90.3929,-0.195985,-0.00297076,0,0,0,0,-0.002284039,38
3,6676,90.5419,-0.226042,-0.00314619,0,0,0,0,-0.002284039,38
3,6686,90.691,-0.255486,-0.00332163,0,0,0,0,-0.002284039,38
3,6696,90.8401,-0.28493,-0.00349952,0,0,0,0,-0.002284039,38
3,6706,90.9892,-0.31468,-0.00367618,0,0,0,0,-0.002284039,38
3,6716,91.1382,-0.344431,-0.00384426,0,0,0,0,-0.002284039,38
3,6726,91.2873,-0.374181,-0.00400374,0,0,0,0,-0.002284039,38
3,6736,91.4364,-0.404239,-0.00416507,0,0,0,0,-0.002284039,38
3,6746,91.5854,-0.433682,-0.00431965,0,0,0,0,-0.002284039,38
3,6756,91.7345,-0.46374,-0.00448037,0,0,0,0,-0.002284039,38
3,6766,91.8836,-0.493183,-0.00464599,0,0,0,0,-0.002284039,38
3,6776,92.0326,-0.523241,-0.00481468,0,0,0,0,-0.002284039,38
3,6786,92.1817,-0.552991,-0.00499747,0,0,0,0,-0.002284039,38
3,6796,92.3308,-0.582742,-0.00517475,0,0,0,0,-0.002284039,38
3,6806,92.4799,-0.612186,-0.00535202,0,0,0,0,-0.002284039,38
3,6816,92.6289,-0.64255,-0.00553421,0,0,0,0,-0.002284039,38
3,6826,92.778,-0.672607,-0.00572069,0,0,0,0,-0.002284039,38
3,6836,92.9271,-0.701437,-0.00589858,0,0,0,0,-0.002284039,38
3,6846,93.0761,-0.731801,-0.006101,0,0,0,0,-0.002284039,38
3,6856,93.2252,-0.761552,-0.00633594,0,0,0,0,-0.002284039,38
3,6868,93.40409,-0.797436,-0.00666227,0,0,0,0,-0.002284039,38
3,6878,93.55316,-0.82688,-0.00697941,0,0,0,0,-0.002284039,38
3,6888,93.70223,-0.856631,-0.00734684,0,0,0,0,-0.002284039,38
3,6898,93.8513,-0.886688,-0.00778789,0,0,0,0,-0.002284039,38
3,6908,94.00037,-0.916438,-0.00831972,0,0,0,0,-0.002284039,38
3,6918,94.14944,-0.946189,-0.00894233,0,0,0,0,-0.002284039,38
3,6928,94.29851,-0.975939,-0.00972811,0,0,0,0,-0.002284039,38
3,6938,94.44758,-1.00569,-0.0107163,0,0,0,0,-0.002284039,38
3,6948,94.59665,-1.03452,-0.0119407,0,0,0,0,-0.002284039,38
3,6958,94.74572,-1.06427,-0.0135405,0,0,0,0,-0.002284039,38
3,6968,94.89479,-1.09402,-0.0156531,0,0,0,0,-0.002284039,38
3,6978,95.04386,-1.12254,-0.0183472,0,0,0,0,-0.002284039,38
3,6988,95.19293,-1.15076,-0.0296953,0,0,0,0,-0.002284039,38
4,6998,95.3208,-1.15352,-0.0458342,0,0,0,0,-0.002284039,38
4,7008,95.3991,-1.13911,-0.0406754,0,0,0,0,-0.002284039,38
4,7018,95.4774,-1.12439,-0.0351915,0,0,0,0,-0.002284039,38
4,7028,95.5557,-1.10936,-0.0296585,0,0,0,0,-0.002284039,38
4,7038,95.6341,-1.09463,-0.0240703,0,0,0,0,-0.002284039,38
4,7049,95.7202,-1.07838,-0.017881,0,0,0,0,-0.002284039,38
4,7059,95.7985,-1.06458,-0.0123725,0,0,0,0,-0.002284039,38
4,7069,95.8768,-1.04924,-0.00636538,0,0,0,0,-0.002284039,38
4,7079,95.9552,-1.03483,-0.000201997,0,0,0,0,-0.002284039,38
4,7089,96.0335,-1.0198,0.00585318,0,0,0,0,-0.002284039,38
4,7099,96.1118,-1.00477,0.0118309,0,0,0,0,-0.002284039,38
4,7110,96.198,-0.988208,0.017716,0,0,0,0,-0.002284039,38
4,7120,96.2763,-0.974099,0.0203285,0,0,0,0,-0.002284039,38
4,7131,96.3624,-0.952323,-0.0112764,0,0,0,0,-0.002284039,38
4,7141,96.4408,-0.936374,-0.0106544,0,0,0,0,-0.002284039,38
4,7151,96.5191,-0.920732,-0.00988085,0,0,0,0,-0.002284039,38
4,7162,96.6052,-0.903863,-0.00903127,0,0,0,0,-0.002284039,38
4,7172,96.6835,-0.887915,-0.00832401,0,0,0,0,-0.002284039,38
4,7182,96.7619,-0.872579,-0.00767809,0,0,0,0,-0.002284039,38
4,7192,96.8402,-0.856937,-0.00711129,0,0,0,0,-0.002284039,38
4,7202,96.9185,-0.840682,-0.00661688,0,0,0,0,-0.002284039,38
4,7213,97.0047,-0.823813,-0.00615069,0,0,0,0,-0.002284039,38
4,7223,97.083,-0.808478,-0.00578509,0,0,0,0,-0.002284039,38
4,7233,97.1613,-0.792222,-0.00547225,0,0,0,0,-0.002284039,38
4,7243,97.2396,-0.777194,-0.00520174,0,0,0,0,-0.002284039,38
4,7253,97.3179,-0.761552,-0.00496987,0,0,0,0,-0.002284039,38
4,7264,97.4041,-0.744376,-0.00475517,0,0,0,0,-0.002284039,38
4,7274,97.4824,-0.728734,-0.00457851,0,0,0,0,-0.002284039,38
4,7284,97.5607,-0.712785,-0.00442823,0,0,0,0,-0.002284039,38
4,7294,97.639,-0.69745,-0.0042945,0,0,0,0,-0.002284039,38
4,7304,97.7174,-0.682115,-0.00416814,0,0,0,0,-0.002284039,38
4,7315,97.8035,-0.664632,-0.00403871,0,0,0,0,-0.002284039,38
4,7325,97.8818,-0.64899,-0.00392461,0,0,0,0,-0.002284039,38
4,7335,97.9602,-0.633348,-0.00381727,0,0,0,0,-0.002284039,38
4,7345,98.0385,-0.618013,-0.00370563,0,0,0,0,-0.002284039,38
4,7355,98.1168,-0.602064,-0.0035946,0,0,0,0,-0.002284039,38
4,7365,98.1951,-0.586422,-0.00347928,0,0,0,0,-0.002284039,38
4,7376,98.2813,-0.569247,-0.00335353,0,0,0,0,-0.002284039,38
4,7386,98.3596,-0.553911,-0.00324066,0,0,0,0,-0.002284039,38
4,7396,98.4379,-0.537656,-0.00313331,0,0,0,0,-0.002284039,38
4,7406,98.5162,-0.522014,-0.00301738,0,0,0,0,-0.002284039,38
4,7416,98.5946,-0.506679,-0.00290144,0,0,0,0,-0.002284039,38
4,7426,98.6729,-0.491037,-0.00278244,0,0,0,0,-0.002284039,38
4,7436,98.7512,-0.475088,-0.00266098,0,0,0,0,-0.002284039,38
4,7446,98.8295,-0.460059,-0.00253891,0,0,0,0,-0.002284039,38
4,7456,98.9078,-0.44411,-0.00241685,0,0,0,0,-0.002284039,38
4,7466,98.9862,-0.428162,-0.00229662,0,0,0,0,-0.002284039,38
4,7476,99.0645,-0.412213,-0.00218007,0,0,0,0,-0.002284039,38
4,7486,99.1428,-0.397184,-0.00205923,0,0,0,0,-0.002284039,38
4,7496,99.2211,-0.381542,-0.00194697,0,0,0,0,-0.002284039,38
4,7506,99.2994,-0.3659,-0.0018292,0,0,0,0,-0.002284039,38
4,7516,99.3778,-0.349645,-0.00170774,0,0,0,0,-0.002284039,38
4,7526,99.4561,-0.33431,-0.00159119,0,0,0,0,-0.002284039,38
4,7536,99.5344,-0.318668,-0.0014728,0,0,0,0,-0.002284039,38
4,7546,99.6127,-0.303026,-0.00136374,0,0,0,0,-0.002284039,38
4,7556,99.691,-0.287384,-0.0012697,0,0,0,0,-0.002284039,38
4,7566,99.7694,-0.271742,-0.00118855,0,0,0,0,-0.002284039,38
4,7576,99.8477,-0.255793,-0.0011304,0,0,0,0,-0.002284039,38
4,7586,99.926,-0.240457,-0.00105814,0,0,0,0,-0.002284039,38
4,7596,100.004,-0.225122,-0.000961892,0,0,0,0,-0.002284039,38
4,7606,100.083,-0.208867,-0.000826328,0,0,0,0,-0.002284039,38
4,7616,100.161,-0.193838,-0.000667086,0,0,0,0,-0.002284039,38
4,7626,100.239,-0.177583,-0.000500913,0,0,0,0,-0.002284039,38
4,7636,100.318,-0.162861,-0.000335659,0,0,0,0,-0.002284039,38
4,7646,100.396,-0.146605,-0.000173412,0,0,0,0,-0.002284039,38
4,7656,100.474,-0.130963,-3.11675e-05,0,0,0,0,-0.002284039,38
4,7667,100.56,-0.113788,0.000100336,0,0,0,0,-0.002284039,38
4,7677,100.639,-0.0981457,0.000209726,0,0,0,0,-0.002284039,38
4,7687,100.717,-0.082197,0.000313515,0,0,0,0,-0.002284039,38
4,7697,100.795,-0.0668617,0.000420924,0,0,0,0,-0.002284039,38
4,7707,100.874,-0.0515264,0.000532994,0,0,0,0,-0.002284039,38
4,7717,100.952,-0.0355776,0.000629484,0,0,0,0,-0.002284039,38
4,7727,101.03,-0.0196289,0.00074499,0,0,0,0,-0.002284039,38
4,7737,101.109,-0.00398689,0.000840375,0,0,0,0,-0.002284039,38
4,7747,101.187,0.0113484,0.000935516,0,0,0,0,-0.002284039,38
4,7757,101.265,0.0272972,0.000996366,0,0,0,0,-0.002284039,38
4,7767,101.344,0.0432459,0.00102293,0,0,0,0,-0.002284039,38
4,7777,101.422,0.0582745,0.00103771,0,0,0,0,-0.002284039,38
4,7787,101.5,0.0742232,0.00106777,0,0,0,0,-0.002284039,38
4,7797,101.579,0.0895585,0.00112696,0,0,0,0,-0.002284039,38
4,7807,101.657,0.105507,0.00118836,0,0,0,0,-0.002284039,38
4,7817,101.735,0.121149,0.00126234,0,0,0,0,-0.002284039,38
4,7827,101.814,0.136791,0.00134767,0,0,0,0,-0.002284039,38
4,7837,101.892,0.15182,0.00145962,0,0,0,0,-0.002284039,38
4,7847,101.97,0.168075,0.00159855,0,0,0,0,-0.002284039,38
4,7857,102.048,0.183411,0.00172989,0,0,0,0,-0.002284039,38
4,7868,102.135,0.200893,0.00185925,0,0,0,0,-0.002284039,38
4,7878,102.213,0.216228,0.00198807,0,0,0,0,-0.002284039,38
4,7888,102.291,0.23187,0.00212179,0,0,0,0,-0.002284039,38
4,7898,102.37,0.247819,0.00226227,0,0,0,0,-0.002284039,38
4,7908,102.448,0.263461,0.00239906,0,0,0,0,-0.002284039,38
4,7919,102.534,0.280637,0.00255548,0,0,0,0,-0.002284039,38
4,7929,102.612,0.296585,0.00268613,0,0,0,0,-0.002284039,38
4,7939,102.691,0.312227,0.00280084,0,0,0,0,-0.002284039,38
4,7949,102.769,0.327869,0.00291678,0,0,0,0,-0.002284039,38
4,7959,102.847,0.343205,0.00301983,0,0,0,0,-0.002284039,38
4,7970,102.933,0.360687,0.00312472,0,0,0,0,-0.002284039,38
4,7980,103.012,0.376329,0.00321244,0,0,0,0,-0.002284039,38
4,7990,103.09,0.391664,0.00328973,0,0,0,0,-0.002284039,38
4,7995,103.129,0.399332,0.0033247,0,0,0,0,-0.002284039,38