File: Feb25/CV02.11.25/secondelectrode-1.108CV_650_FLiNaK_Ni_02_11_25_200mVperS_sh15.csv
Segment,Point,Elapsed Time (s),Potential (V),Current (A),Frequency (Hz),|Z| (ohms),Zre (ohms),Zim (ohms),Phase of Z (deg),ActionId
0,0,0.00554,-0.00122653,-0.000110555,0,0,0,0,-0.002284039,38
0,10,0.06648,-0.0131881,-0.000340444,0,0,0,0,-0.002284039,38
0,21,0.12742,-0.0251496,-0.000420617,0,0,0,0,-0.002284039,38
0,31,0.18282,-0.0364978,-0.000456624,0,0,0,0,-0.002284039,38
0,41,0.23822,-0.0472325,-0.000480486,0,0,0,0,-0.002284039,38
0,51,0.29362,-0.0579672,-0.000499441,0,0,0,0,-0.002284039,38
0,61,0.34902,-0.0690086,-0.000513794,0,0,0,0,-0.002284039,38
0,71,0.40442,-0.0806635,-0.000528884,0,0,0,0,-0.002284039,38
0,81,0.45982,-0.0913982,-0.000540355,0,0,0,0,-0.002284039,38
0,91,0.51522,-0.102746,-0.000559555,0,0,0,0,-0.002284039,38
0,101,0.57062,-0.113788,-0.000577589,0,0,0,0,-0.002284039,38
0,111,0.62602,-0.125136,-0.000596666,0,0,0,0,-0.002284039,38
0,121,0.68142,-0.135871,-0.000617829,0,0,0,0,-0.002284039,38
0,131,0.73682,-0.146912,-0.000635864,0,0,0,0,-0.002284039,38
0,141,0.79222,-0.157953,-0.0006604,0,0,0,0,-0.002284039,38
0,152,0.85316,-0.170222,-0.000687636,0,0,0,0,-0.002284039,38
0,162,0.90856,-0.18157,-0.000715546,0,0,0,0,-0.002284039,38
0,173,0.9695,-0.193838,-0.000746646,0,0,0,0,-0.002284039,38
0,183,1.0249,-0.204573,-0.000777071,0,0,0,0,-0.002284039,38
0,193,1.0803,-0.216228,-0.000799461,0,0,0,0,-0.002284039,38
0,203,1.1357,-0.226962,-0.000829702,0,0,0,0,-0.002284039,38
0,213,1.1911,-0.23739,-0.000861538,0,0,0,0,-0.002284039,38
0,223,1.2465,-0.249045,-0.000885277,0,0,0,0,-0.002284039,38
0,233,1.3019,-0.260393,-0.00092153,0,0,0,0,-0.002284039,38
0,243,1.3573,-0.271128,-0.00094576,0,0,0,0,-0.002284039,38
0,253,1.4127,-0.28217,-0.000977473,0,0,0,0,-0.002284039,38
0,263,1.4681,-0.292904,-0.00101035,0,0,0,0,-0.002284039,38
0,273,1.5235,-0.304559,-0.00103513,0,0,0,0,-0.002284039,38
0,283,1.5789,-0.315294,-0.00107041,0,0,0,0,-0.002284039,38
0,293,1.6343,-0.326642,-0.00109954,0,0,0,0,-0.002284039,38
0,304,1.69524,-0.338603,-0.00113119,0,0,0,0,-0.002284039,38
0,314,1.75064,-0.349338,-0.00116058,0,0,0,0,-0.002284039,38
0,325,1.81158,-0.361913,-0.00119358,0,0,0,0,-0.002284039,38
0,335,1.86698,-0.372648,-0.00121762,0,0,0,0,-0.002284039,38
0,345,1.92238,-0.383689,-0.00124149,0,0,0,0,-0.002284039,38
0,355,1.97778,-0.395037,-0.00127068,0,0,0,0,-0.002284039,38
0,365,2.03318,-0.406386,-0.00129209,0,0,0,0,-0.002284039,38
0,375,2.08858,-0.416814,-0.00131405,0,0,0,0,-0.002284039,38
0,385,2.14398,-0.427548,-0.00133399,0,0,0,0,-0.002284039,38
0,395,2.19938,-0.439203,-0.00134846,0,0,0,0,-0.002284039,38
0,405,2.25478,-0.450245,-0.00136889,0,0,0,0,-0.002284039,38
0,415,2.31018,-0.461899,-0.0013865,0,0,0,0,-0.002284039,38
0,425,2.36558,-0.472327,-0.00139386,0,0,0,0,-0.002284039,38
0,435,2.42098,-0.483676,-0.00141171,0,0,0,0,-0.002284039,38
0,445,2.47638,-0.494717,-0.00142772,0,0,0,0,-0.002284039,38
0,456,2.53732,-0.506985,-0.00145133,0,0,0,0,-0.002284039,38
0,466,2.59272,-0.51864,-0.00145287,0,0,0,0,-0.002284039,38
0,476,2.64812,-0.529068,-0.00147182,0,0,0,0,-0.002284039,38
0,486,2.70352,-0.540416,-0.00148642,0,0,0,0,-0.002284039,38
0,496,2.75892,-0.551458,-0.00149679,0,0,0,0,-0.002284039,38
0,506,2.81432,-0.562192,-0.00151378,0,0,0,0,-0.002284039,38
0,516,2.86972,-0.573234,-0.00153255,0,0,0,0,-0.002284039,38
0,526,2.92512,-0.584582,-0.00154494,0,0,0,0,-0.002284039,38
0,536,2.98052,-0.596237,-0.0015661,0,0,0,0,-0.002284039,38
0,546,3.03592,-0.606358,-0.00159064,0,0,0,0,-0.002284039,38
0,556,3.09132,-0.6174,-0.00160456,0,0,0,0,-0.002284039,38
0,566,3.14672,-0.628748,-0.00162824,0,0,0,0,-0.002284039,38
0,576,3.20212,-0.640096,-0.00165897,0,0,0,0,-0.002284039,38
0,587,3.26306,-0.652364,-0.0016883,0,0,0,0,-0.002284039,38
0,597,3.31846,-0.662792,-0.00170915,0,0,0,0,-0.002284039,38
0,608,3.3794,-0.675367,-0.00174866,0,0,0,0,-0.002284039,38
0,618,3.4348,-0.686409,-0.00178399,0,0,0,0,-0.002284039,38
0,628,3.49574,-0.69929,-0.00181325,0,0,0,0,-0.002284039,38
0,638,3.55114,-0.709718,-0.00186355,0,0,0,0,-0.002284039,38
0,648,3.60654,-0.72076,-0.00189422,0,0,0,0,-0.002284039,38
0,658,3.66194,-0.731494,-0.00193777,0,0,0,0,-0.002284039,38
0,668,3.71734,-0.743149,-0.00199788,0,0,0,0,-0.002284039,38
0,678,3.77274,-0.754497,-0.00203224,0,0,0,0,-0.002284039,38
0,688,3.82814,-0.764619,-0.00208867,0,0,0,0,-0.002284039,38
0,698,3.88354,-0.776273,-0.0021359,0,0,0,0,-0.002284039,38
0,708,3.93894,-0.787008,-0.00218436,0,0,0,0,-0.002284039,38
0,718,3.99434,-0.798356,-0.00223098,0,0,0,0,-0.002284039,38
0,728,4.04974,-0.809398,-0.00226043,0,0,0,0,-0.002284039,38
0,739,4.11068,-0.821666,-0.00228435,0,0,0,0,-0.002284039,38
0,749,4.16608,-0.832707,-0.00230459,0,0,0,0,-0.002284039,38
0,760,4.22702,-0.844669,-0.00234017,0,0,0,0,-0.002284039,38
0,770,4.28242,-0.85571,-0.00235612,0,0,0,0,-0.002284039,38
0,780,4.33782,-0.867059,-0.00238801,0,0,0,0,-0.002284039,38
0,790,4.39322,-0.8781,-0.00240335,0,0,0,0,-0.002284039,38
0,800,4.44862,-0.889141,-0.00243831,0,0,0,0,-0.002284039,38
0,810,4.50402,-0.899876,-0.00246162,0,0,0,0,-0.002284039,38
0,820,4.55942,-0.910918,-0.00248923,0,0,0,0,-0.002284039,38
0,830,4.61482,-0.921959,-0.00251131,0,0,0,0,-0.002284039,38
0,840,4.67022,-0.933307,-0.00254934,0,0,0,0,-0.002284039,38
0,850,4.72562,-0.944042,-0.00257388,0,0,0,0,-0.002284039,38
0,860,4.78102,-0.955697,-0.00260394,0,0,0,0,-0.002284039,38
0,871,4.84196,-0.967351,-0.00264135,0,0,0,0,-0.002284039,38
0,881,4.89736,-0.979006,-0.00267264,0,0,0,0,-0.002284039,38
0,892,4.9583,-0.991275,-0.00269717,0,0,0,0,-0.002284039,38
0,902,5.0137,-1.00232,-0.00271312,0,0,0,0,-0.002284039,38
0,912,5.0691,-1.01336,-0.00272232,0,0,0,0,-0.002284039,38
0,922,5.1245,-1.02379,-0.00274318,0,0,0,0,-0.002284039,38
0,932,5.1799,-1.03513,-0.00275606,0,0,0,0,-0.002284039,38
0,942,5.2353,-1.04648,-0.00277753,0,0,0,0,-0.002284039,38
0,952,5.2907,-1.05783,-0.00278305,0,0,0,0,-0.002284039,38
0,962,5.3461,-1.06856,-0.00279839,0,0,0,0,-0.002284039,38
0,972,5.4015,-1.0793,-0.00281679,0,0,0,0,-0.002284039,38
0,982,5.4569,-1.09034,-0.00282354,0,0,0,0,-0.002284039,38
0,992,5.5123,-1.10169,-0.00284991,0,0,0,0,-0.002284039,38
1,1002,5.612735,-1.09371,-0.00257204,0,0,0,0,-0.002284039,38
1,1012,5.758205,-1.06458,-0.00240519,0,0,0,0,-0.002284039,38
1,1022,5.903675,-1.03544,-0.00226288,0,0,0,0,-0.002284039,38
1,1032,6.049145,-1.00661,-0.00213774,0,0,0,0,-0.002284039,38
1,1042,6.194615,-0.977473,-0.00202549,0,0,0,0,-0.002284039,38
1,1052,6.340085,-0.947722,-0.00190219,0,0,0,0,-0.002284039,38
1,1062,6.485555,-0.919199,-0.00177338,0,0,0,0,-0.002284039,38
1,1072,6.631025,-0.890061,-0.00164211,0,0,0,0,-0.002284039,38
1,1082,6.776495,-0.860924,-0.00148078,0,0,0,0,-0.002284039,38
1,1092,6.921965,-0.831481,-0.00130399,0,0,0,0,-0.002284039,38
1,1102,7.067435,-0.802343,-0.00111678,0,0,0,0,-0.002284039,38
1,1112,7.212905,-0.77382,-0.000959255,0,0,0,0,-0.002284039,38
1,1122,7.358375,-0.745296,-0.000831849,0,0,0,0,-0.002284039,38
1,1132,7.503845,-0.715546,-0.000716773,0,0,0,0,-0.002284039,38
1,1142,7.649315,-0.686102,-0.000618688,0,0,0,0,-0.002284039,38
1,1152,7.794785,-0.657578,-0.000526676,0,0,0,0,-0.002284039,38
1,1162,7.940255,-0.628134,-0.000456072,0,0,0,0,-0.002284039,38
1,1172,8.085725,-0.599304,-0.00040933,0,0,0,0,-0.002284039,38
1,1182,8.231195,-0.570473,-0.000425156,0,0,0,0,-0.002284039,38
1,1192,8.376665,-0.541336,-0.000467359,0,0,0,0,-0.002284039,38
1,1202,8.522135,-0.512506,-0.000454232,0,0,0,0,-0.002284039,38
1,1212,8.667605,-0.482755,-0.000389394,0,0,0,0,-0.002284039,38
1,1222,8.813075,-0.453618,-0.000285175,0,0,0,0,-0.002284039,38
1,1232,8.958545,-0.425095,-0.000185435,0,0,0,0,-0.002284039,38
1,1242,9.104015,-0.395344,-7.92161e-05,0,0,0,0,-0.002284039,38
1,1253,9.264032,-0.36406,-3.47682e-06,0,0,0,0,-0.002284039,38
1,1263,9.409502,-0.334923,4.96803e-05,0,0,0,0,-0.002284039,38
1,1273,9.554972,-0.306093,0.000108329,0,0,0,0,-0.002284039,38
1,1283,9.700442,-0.276342,0.000173393,0,0,0,0,-0.002284039,38
1,1293,9.845912,-0.247512,0.000233649,0,0,0,0,-0.002284039,38
1,1303,9.991382,-0.218375,0.000279532,0,0,0,0,-0.002284039,38
1,1313,10.1369,-0.189238,0.000320263,0,0,0,0,-0.002284039,38
1,1323,10.2823,-0.160407,0.000357374,0,0,0,0,-0.002284039,38
1,1333,10.4278,-0.13127,0.000390744,0,0,0,0,-0.002284039,38
1,1343,10.5733,-0.102133,0.00043951,0,0,0,0,-0.002284039,38
1,1353,10.7187,-0.0729958,0.000515941,0,0,0,0,-0.002284039,38
1,1363,10.8642,-0.043552,0.00064715,0,0,0,0,-0.002284039,38
1,1373,11.0097,-0.0150283,0.000879511,0,0,0,0,-0.002284039,38
1,1383,11.1551,0.0144155,0.00131399,0,0,0,0,-0.002284039,38
1,1393,11.3006,0.0432459,0.00207272,0,0,0,0,-0.002284039,38
1,1403,11.4461,0.0720763,0.00314803,0,0,0,0,-0.002284039,38
1,1413,11.5916,0.101213,0.00437486,0,0,0,0,-0.002284039,38
1,1423,11.737,0.129737,0.00541643,0,0,0,0,-0.002284039,38
1,1433,11.8825,0.159181,0.00593661,0,0,0,0,-0.002284039,38
1,1443,12.028,0.187705,0.00528332,0,0,0,0,-0.002284039,38
1,1454,12.188,0.220215,0.00418838,0,0,0,0,-0.002284039,38
1,1464,12.3334,0.248739,0.00397123,0,0,0,0,-0.002284039,38
1,1474,12.4789,0.278183,0.00410066,0,0,0,0,-0.002284039,38
1,1484,12.6244,0.307627,0.00438897,0,0,0,0,-0.002284039,38
1,1494,12.7699,0.336764,0.00474352,0,0,0,0,-0.002284039,38
1,1504,12.9153,0.365594,0.00520419,0,0,0,0,-0.002284039,38
1,1514,13.0608,0.394118,0.00559923,0,0,0,0,-0.002284039,38
1,1524,13.2063,0.424175,0.00597219,0,0,0,0,-0.002284039,38
1,1534,13.3517,0.452085,0.00625804,0,0,0,0,-0.002284039,38
1,1544,13.4972,0.481529,0.00648071,0,0,0,0,-0.002284039,38
1,1554,13.6427,0.510973,0.00674141,0,0,0,0,-0.002284039,38
1,1564,13.7881,0.539803,0.00688494,0,0,0,0,-0.002284039,38
1,1574,13.9336,0.568941,0.0069469,0,0,0,0,-0.002284039,38
1,1584,14.0791,0.598078,0.00693156,0,0,0,0,-0.002284039,38
1,1594,14.2246,0.627521,0.00695794,0,0,0,0,-0.002284039,38
1,1604,14.37,0.656352,0.00691868,0,0,0,0,-0.002284039,38
1,1614,14.5155,0.685182,0.00696346,0,0,0,0,-0.002284039,38
1,1624,14.661,0.714319,0.0069929,0,0,0,0,-0.002284039,38
1,1634,14.8064,0.743456,0.00705179,0,0,0,0,-0.002284039,38
1,1644,14.9519,0.77198,0.00726035,0,0,0,0,-0.002284039,38
1,1655,15.1119,0.804184,0.00785659,0,0,0,0,-0.002284039,38
1,1665,15.2574,0.833321,0.0084835,0,0,0,0,-0.002284039,38
1,1675,15.4029,0.862459,0.00924842,0,0,0,0,-0.002284039,38
1,1685,15.5483,0.891289,0.0101667,0,0,0,0,-0.002284039,38
1,1695,15.6938,0.920426,0.0111666,0,0,0,0,-0.002284039,38
1,1705,15.8393,0.94987,0.012332,0,0,0,0,-0.002284039,38
1,1715,15.9847,0.978087,0.0134724,0,0,0,0,-0.002284039,38
1,1725,16.1302,1.00753,0.0149145,0,0,0,0,-0.002284039,38
1,1735,16.2757,1.03636,0.017389,0,0,0,0,-0.002284039,38
1,1745,16.4212,1.06335,0.0199973,0,0,0,0,-0.002284039,38
1,1755,16.5666,1.09218,0.0234814,0,0,0,0,-0.002284039,38
1,1765,16.7121,1.12101,0.0277017,0,0,0,0,-0.002284039,38
1,1775,16.8576,1.14831,0.0326581,0,0,0,0,-0.002284039,38
1,1785,17.003,1.17683,0.0386389,0,0,0,0,-0.002284039,38
1,1795,17.1485,1.20474,0.0448711,0,0,0,0,-0.002284039,38
1,1805,17.294,1.23265,0.0513242,0,0,0,0,-0.002284039,38
1,1815,17.4394,1.26087,0.0584705,0,0,0,0,-0.002284039,38
1,1825,17.5849,1.28878,0.0658437,0,0,0,0,-0.002284039,38
1,1835,17.7304,1.31638,0.0734316,0,0,0,0,-0.002284039,38
1,1846,17.8904,1.34736,0.0820685,0,0,0,0,-0.002284039,38
1,1856,18.0359,1.37527,0.0894969,0,0,0,0,-0.002284039,38
1,1866,18.1813,1.40288,0.0969499,0,0,0,0,-0.002284039,38
1,1876,18.3268,1.43079,0.104047,0,0,0,0,-0.002284039,38
1,1886,18.4723,1.4587,0.108132,0,0,0,0,-0.002284039,38
1,1896,18.6178,1.49213,0.0804061,0,0,0,0,-0.002284039,38
1,1906,18.7632,1.53046,0.0291923,0,0,0,0,-0.002284039,38
1,1916,18.9087,1.55899,0.0316521,0,0,0,0,-0.002284039,38
1,1926,19.0542,1.58598,0.043951,0,0,0,0,-0.002284039,38
1,1936,19.1996,1.61205,0.0643899,0,0,0,0,-0.002284039,38
1,1946,19.3451,1.63659,0.0883192,0,0,0,0,-0.002284039,38
1,1956,19.4906,1.6648,0.0945882,0,0,0,0,-0.002284039,38
1,1966,19.636,1.69241,0.103704,0,0,0,0,-0.002284039,38
1,1976,19.7815,1.72277,0.095766,0,0,0,0,-0.002284039,38
1,1986,19.927,1.75283,0.0863133,0,0,0,0,-0.002284039,38
1,1996,20.0725,1.7835,0.0813017,0,0,0,0,-0.002284039,38
1,2006,20.2179,1.75467,0.10298,0,0,0,0,-0.002284039,38
1,2016,20.3634,1.72676,0.0965144,0,0,0,0,-0.002284039,38
1,2026,20.5089,1.69946,0.0894846,0,0,0,0,-0.002284039,38
1,2036,20.6543,1.67032,0.0851969,0,0,0,0,-0.002284039,38
1,2047,20.81435,1.63965,0.0749038,0,0,0,0,-0.002284039,38
1,2057,20.95982,1.61266,0.0655247,0,0,0,0,-0.002284039,38
1,2067,21.10529,1.58445,0.058403,0,0,0,0,-0.002284039,38
1,2077,21.25076,1.55715,0.050993,0,0,0,0,-0.002284039,38
1,2087,21.39623,1.52954,0.0432824,0,0,0,0,-0.002284039,38
1,2097,21.5417,1.50133,0.0368784,0,0,0,0,-0.002284039,38
1,2107,21.68717,1.47403,0.0269165,0,0,0,0,-0.002284039,38
1,2117,21.83264,1.44643,0.0155071,0,0,0,0,-0.002284039,38
1,2127,21.97811,1.41974,0.00323453,0,0,0,0,-0.002284039,38
1,2137,22.12358,1.39214,-0.0115395,0,0,0,0,-0.002284039,38
1,2147,22.26905,1.36607,-0.0246469,0,0,0,0,-0.002284039,38
1,2157,22.41452,1.33847,-0.0342898,0,0,0,0,-0.002284039,38
1,2167,22.55999,1.3127,-0.0480548,0,0,0,0,-0.002284039,38
1,2177,22.70546,1.28571,-0.0638011,0,0,0,0,-0.002284039,38
1,2187,22.85093,1.25903,-0.078664,0,0,0,0,-0.002284039,38
1,2197,22.9964,1.23235,-0.0927541,0,0,0,0,-0.002284039,38
1,2207,23.14187,1.20566,-0.104789,0,0,0,0,-0.002284039,38
1,2217,23.28734,1.17745,-0.111482,0,0,0,0,-0.002284039,38
1,2227,23.43281,1.1477,-0.105163,0,0,0,0,-0.002284039,38
1,2237,23.57828,1.11396,-0.0812956,0,0,0,0,-0.002284039,38
1,2248,23.7383,1.08237,-0.0824917,0,0,0,0,-0.002284039,38
1,2258,23.8838,1.05323,-0.0823077,0,0,0,0,-0.002284039,38
1,2268,24.0292,1.02103,-0.0657149,0,0,0,0,-0.002284039,38
1,2278,24.1747,0.988208,-0.0423561,0,0,0,0,-0.002284039,38
1,2288,24.3202,0.957537,-0.0310632,0,0,0,0,-0.002284039,38
1,2298,24.4656,0.92656,-0.0245549,0,0,0,0,-0.002284039,38
1,2308,24.6111,0.897423,-0.0201138,0,0,0,0,-0.002284039,38
1,2318,24.7566,0.867673,-0.0166419,0,0,0,0,-0.002284039,38
1,2328,24.9021,0.838535,-0.0139551,0,0,0,0,-0.002284039,38
1,2338,25.0475,0.808172,-0.0117413,0,0,0,0,-0.002284039,38
1,2348,25.193,0.778421,-0.00993115,0,0,0,0,-0.002284039,38
1,2358,25.3385,0.74867,-0.00848534,0,0,0,0,-0.002284039,38
1,2368,25.4839,0.720147,-0.00736647,0,0,0,0,-0.002284039,38
1,2378,25.6294,0.691316,-0.00648438,0,0,0,0,-0.002284039,38
1,2388,25.7749,0.662179,-0.00574645,0,0,0,0,-0.002284039,38
1,2398,25.9203,0.632429,-0.00512506,0,0,0,0,-0.002284039,38
1,2408,26.0658,0.603598,-0.00458281,0,0,0,0,-0.002284039,38
1,2418,26.2113,0.574155,-0.00413011,0,0,0,0,-0.002284039,38
1,2428,26.3568,0.545017,-0.00370379,0,0,0,0,-0.002284039,38
1,2438,26.5022,0.51588,-0.00329587,0,0,0,0,-0.002284039,38
1,2449,26.6622,0.483676,-0.00283949,0,0,0,0,-0.002284039,38
1,2459,26.8077,0.454846,-0.00246224,0,0,0,0,-0.002284039,38
1,2469,26.9532,0.425709,-0.00210953,0,0,0,0,-0.002284039,38
1,2479,27.0987,0.396878,-0.00182368,0,0,0,0,-0.002284039,38
1,2489,27.2441,0.367435,-0.0016053,0,0,0,0,-0.002284039,38
1,2499,27.3896,0.338297,-0.00142373,0,0,0,0,-0.002284039,38
1,2509,27.5351,0.309774,-0.00127939,0,0,0,0,-0.002284039,38
1,2519,27.6805,0.280023,-0.00116481,0,0,0,0,-0.002284039,38
1,2529,27.826,0.251193,-0.00108697,0,0,0,0,-0.002284039,38
1,2539,27.9715,0.222056,-0.00103145,0,0,0,0,-0.002284039,38
1,2549,28.1169,0.193225,-0.00100311,0,0,0,0,-0.002284039,38
1,2559,28.2624,0.164088,-0.00101827,0,0,0,0,-0.002284039,38
1,2569,28.4079,0.135258,-0.00106531,0,0,0,0,-0.002284039,38
1,2579,28.5534,0.105814,-0.00109605,0,0,0,0,-0.002284039,38
1,2589,28.6988,0.0763702,-0.00112966,0,0,0,0,-0.002284039,38
1,2599,28.8443,0.0475398,-0.00117438,0,0,0,0,-0.002284039,38
1,2609,28.9898,0.0184027,-0.00126749,0,0,0,0,-0.002284039,38
1,2619,29.1352,-0.0107344,-0.00142201,0,0,0,0,-0.002284039,38
1,2629,29.2807,-0.0392581,-0.00164364,0,0,0,0,-0.002284039,38
1,2639,29.4262,-0.0687019,-0.00184821,0,0,0,0,-0.002284039,38
1,2650,29.5862,-0.100599,-0.00197948,0,0,0,0,-0.002284039,38
1,2660,29.7317,-0.129736,-0.00211505,0,0,0,0,-0.002284039,38
1,2670,29.8771,-0.158567,-0.0022457,0,0,0,0,-0.002284039,38
1,2680,30.0226,-0.188317,-0.00235366,0,0,0,0,-0.002284039,38
1,2690,30.1681,-0.216534,-0.00245181,0,0,0,0,-0.002284039,38
1,2700,30.3135,-0.245978,-0.00254137,0,0,0,0,-0.002284039,38
1,2710,30.459,-0.274809,-0.00262909,0,0,0,0,-0.002284039,38
1,2720,30.6045,-0.303946,-0.00272846,0,0,0,0,-0.002284039,38
1,2730,30.75,-0.333083,-0.00283703,0,0,0,0,-0.002284039,38
1,2740,30.8954,-0.36222,-0.00294929,0,0,0,0,-0.002284039,38
1,2750,31.0409,-0.391357,-0.00309528,0,0,0,0,-0.002284039,38
1,2760,31.1864,-0.420187,-0.00318975,0,0,0,0,-0.002284039,38
1,2770,31.3318,-0.449324,-0.00330507,0,0,0,0,-0.002284039,38
1,2780,31.4773,-0.478462,-0.00341671,0,0,0,0,-0.002284039,38
1,2790,31.6228,-0.507905,-0.00352958,0,0,0,0,-0.002284039,38
1,2800,31.7682,-0.537042,-0.00365103,0,0,0,0,-0.002284039,38
1,2810,31.9137,-0.565873,-0.0037823,0,0,0,0,-0.002284039,38
1,2820,32.0592,-0.59593,-0.00393627,0,0,0,0,-0.002284039,38
1,2830,32.2047,-0.623534,-0.00412827,0,0,0,0,-0.002284039,38
1,2841,32.3647,-0.656351,-0.00439387,0,0,0,0,-0.002284039,38
1,2851,32.5101,-0.685795,-0.00468586,0,0,0,0,-0.002284039,38
1,2861,32.6556,-0.714012,-0.00504716,0,0,0,0,-0.002284039,38
1,2871,32.8011,-0.743149,-0.00548514,0,0,0,0,-0.002284039,38
1,2881,32.9465,-0.771673,-0.00602862,0,0,0,0,-0.002284039,38
1,2891,33.092,-0.80081,-0.00669356,0,0,0,0,-0.002284039,38
1,2901,33.2375,-0.830254,-0.00750388,0,0,0,0,-0.002284039,38
1,2911,33.383,-0.858471,-0.00848902,0,0,0,0,-0.002284039,38
1,2921,33.5284,-0.888221,-0.00968824,0,0,0,0,-0.002284039,38
1,2931,33.6739,-0.917052,-0.0112034,0,0,0,0,-0.002284039,38
1,2941,33.8194,-0.945882,-0.0131632,0,0,0,0,-0.002284039,38
1,2951,33.9648,-0.974406,-0.0158794,0,0,0,0,-0.002284039,38
1,2961,34.1103,-1.0017,-0.019942,0,0,0,0,-0.002284039,38
1,2971,34.2558,-1.02716,-0.0427181,0,0,0,0,-0.002284039,38
1,2981,34.4012,-1.05139,-0.0695855,0,0,0,0,-0.002284039,38
1,2991,34.5467,-1.07562,-0.0964898,0,0,0,0,-0.002284039,38
2,3001,34.6922,-1.07623,-0.109782,0,0,0,0,-0.002284039,38
2,3011,34.8377,-1.04771,-0.10574,0,0,0,0,-0.002284039,38
2,3021,34.9831,-1.0198,-0.100268,0,0,0,0,-0.002284039,38
2,3031,35.1286,-0.991275,-0.0932878,0,0,0,0,-0.002284039,38
2,3042,35.2886,-0.960604,-0.0859084,0,0,0,0,-0.002284039,38
2,3052,35.4341,-0.933307,-0.0770262,0,0,0,0,-0.002284039,38
2,3062,35.5796,-0.905704,-0.0678496,0,0,0,0,-0.002284039,38
2,3072,35.725,-0.8781,-0.0575626,0,0,0,0,-0.002284039,38
2,3082,35.8705,-0.850803,-0.0468402,0,0,0,0,-0.002284039,38
2,3092,36.016,-0.823813,-0.0359583,0,0,0,0,-0.002284039,38
2,3102,36.1614,-0.796516,-0.0245733,0,0,0,0,-0.002284039,38
2,3112,36.3069,-0.769833,-0.0131332,0,0,0,0,-0.002284039,38
2,3122,36.4524,-0.742842,5.28149e-05,0,0,0,0,-0.002284039,38
2,3132,36.5978,-0.715239,0.014206,0,0,0,0,-0.002284039,38
2,3142,36.7433,-0.688862,0.0272662,0,0,0,0,-0.002284039,38
2,3152,36.8888,-0.662179,0.0416385,0,0,0,0,-0.002284039,38
2,3162,37.0343,-0.635495,0.056342,0,0,0,0,-0.002284039,38
2,3172,37.1797,-0.609732,0.0708062,0,0,0,0,-0.002284039,38
2,3182,37.3252,-0.577528,0.0543545,0,0,0,0,-0.002284039,38
2,3192,37.4707,-0.548697,0.0548268,0,0,0,0,-0.002284039,38
2,3202,37.6161,-0.52048,0.0622737,0,0,0,0,-0.002284039,38
2,3212,37.7616,-0.492263,0.0682544,0,0,0,0,-0.002284039,38
2,3222,37.9071,-0.46374,0.0694444,0,0,0,0,-0.002284039,38
2,3232,38.0525,-0.431536,0.0511095,0,0,0,0,-0.002284039,38
2,3243,38.2126,-0.39105,-0.00172737,0,0,0,0,-0.002284039,38
2,3253,38.358,-0.361606,-0.000617338,0,0,0,0,-0.002284039,38
2,3263,38.5035,-0.332469,-0.000143477,0,0,0,0,-0.002284039,38
2,3273,38.649,-0.303639,9.32817e-05,0,0,0,0,-0.002284039,38
2,3283,38.7944,-0.274809,0.00027395,0,0,0,0,-0.002284039,38
2,3293,38.9399,-0.245671,0.000412704,0,0,0,0,-0.002284039,38
2,3303,39.0854,-0.216228,0.000514531,0,0,0,0,-0.002284039,38
2,3313,39.2309,-0.187397,0.000602739,0,0,0,0,-0.002284039,38
2,3323,39.3763,-0.158567,0.000706406,0,0,0,0,-0.002284039,38
2,3333,39.5218,-0.129123,0.000802957,0,0,0,0,-0.002284039,38
2,3343,39.6673,-0.099986,0.000904354,0,0,0,0,-0.002284039,38
2,3353,39.8127,-0.0711556,0.00099839,0,0,0,0,-0.002284039,38
2,3363,39.9582,-0.0420185,0.00108948,0,0,0,0,-0.002284039,38
2,3373,40.1037,-0.0131881,0.00117475,0,0,0,0,-0.002284039,38
2,3383,40.2491,0.015949,0.00127173,0,0,0,0,-0.002284039,38
2,3393,40.3946,0.0450861,0.00133571,0,0,0,0,-0.002284039,38
2,3403,40.5401,0.0739165,0.00134896,0,0,0,0,-0.002284039,38
2,3413,40.6856,0.10336,0.00134344,0,0,0,0,-0.002284039,38
2,3423,40.831,0.132497,0.00134896,0,0,0,0,-0.002284039,38
2,3433,40.9765,0.161635,0.00138699,0,0,0,0,-0.002284039,38
2,3444,41.1365,0.193532,0.00146281,0,0,0,0,-0.002284039,38
2,3454,41.282,0.222976,0.0015485,0,0,0,0,-0.002284039,38
2,3464,41.4274,0.2515,0.0016475,0,0,0,0,-0.002284039,38
2,3474,41.5729,0.280943,0.00176197,0,0,0,0,-0.002284039,38
2,3484,41.7184,0.309774,0.00186355,0,0,0,0,-0.002284039,38
2,3494,41.8639,0.338604,0.00194084,0,0,0,0,-0.002284039,38
2,3504,42.0093,0.368048,0.00201936,0,0,0,0,-0.002284039,38
2,3514,42.1548,0.396572,0.0020991,0,0,0,0,-0.002284039,38
2,3524,42.3003,0.426322,0.00218682,0,0,0,0,-0.002284039,38
2,3534,42.4457,0.455153,0.00226411,0,0,0,0,-0.002284039,38
2,3544,42.5912,0.48429,0.00232177,0,0,0,0,-0.002284039,38
2,3554,42.7367,0.51312,0.00237943,0,0,0,0,-0.002284039,38
2,3564,42.8821,0.542257,0.00244445,0,0,0,0,-0.002284039,38
2,3574,43.0276,0.571087,0.00256039,0,0,0,0,-0.002284039,38
2,3584,43.1731,0.599918,0.00277017,0,0,0,0,-0.002284039,38
2,3594,43.3186,0.628748,0.00313699,0,0,0,0,-0.002284039,38
2,3604,43.464,0.658499,0.00382708,0,0,0,0,-0.002284039,38
2,3614,43.6095,0.687636,0.00493613,0,0,0,0,-0.002284039,38
2,3624,43.755,0.716773,0.00645924,0,0,0,0,-0.002284039,38
2,3634,43.9004,0.74591,0.00854116,0,0,0,0,-0.002284039,38
2,3645,44.0605,0.776887,0.0105501,0,0,0,0,-0.002284039,38
2,3655,44.2059,0.806025,0.011569,0,0,0,0,-0.002284039,38
2,3665,44.3514,0.835162,0.0118198,0,0,0,0,-0.002284039,38
2,3675,44.4969,0.864299,0.0123811,0,0,0,0,-0.002284039,38
2,3685,44.6423,0.893129,0.0130964,0,0,0,0,-0.002284039,38
2,3695,44.7878,0.921653,0.0136644,0,0,0,0,-0.002284039,38
2,3705,44.9333,0.951403,0.0141244,0,0,0,0,-0.002284039,38
2,3715,45.0787,0.98054,0.014371,0,0,0,0,-0.002284039,38
2,3725,45.2242,1.00937,0.0143109,0,0,0,0,-0.002284039,38
2,3735,45.3697,1.03851,0.0139067,0,0,0,0,-0.002284039,38
2,3745,45.5152,1.06765,0.0133387,0,0,0,0,-0.002284039,38
2,3755,45.6606,1.09648,0.0129559,0,0,0,0,-0.002284039,38
2,3765,45.8061,1.12592,0.0129228,0,0,0,0,-0.002284039,38
2,3775,45.9516,1.15506,0.0128228,0,0,0,0,-0.002284039,38
2,3785,46.097,1.1845,0.0128216,0,0,0,0,-0.002284039,38
2,3795,46.2425,1.21302,0.0128179,0,0,0,0,-0.002284039,38
2,3805,46.388,1.24216,0.0129571,0,0,0,0,-0.002284039,38
2,3815,46.5334,1.27068,0.0133871,0,0,0,0,-0.002284039,38
2,3825,46.6789,1.29982,0.0138564,0,0,0,0,-0.002284039,38
2,3836,46.8389,1.33203,0.0146201,0,0,0,0,-0.002284039,38
2,3846,46.9844,1.36116,0.0154347,0,0,0,0,-0.002284039,38
2,3856,47.1299,1.38969,0.0184692,0,0,0,0,-0.002284039,38
2,3866,47.2753,1.41729,0.0228128,0,0,0,0,-0.002284039,38
2,3876,47.4208,1.44489,0.0284623,0,0,0,0,-0.002284039,38
2,3886,47.5663,1.47311,0.0346824,0,0,0,0,-0.002284039,38
2,3896,47.7118,1.50133,0.0412888,0,0,0,0,-0.002284039,38
2,3906,47.8572,1.52924,0.0480548,0,0,0,0,-0.002284039,38
2,3916,48.0027,1.55654,0.0551887,0,0,0,0,-0.002284039,38
2,3926,48.1482,1.58445,0.0621755,0,0,0,0,-0.002284039,38
2,3936,48.2936,1.61297,0.0693892,0,0,0,0,-0.002284039,38
2,3946,48.4391,1.64088,0.0769526,0,0,0,0,-0.002284039,38
2,3956,48.5846,1.66879,0.0827432,0,0,0,0,-0.002284039,38
2,3966,48.73,1.69639,0.0897484,0,0,0,0,-0.002284039,38
2,3976,48.8755,1.7243,0.096864,0,0,0,0,-0.002284039,38
2,3986,49.021,1.75191,0.104887,0,0,0,0,-0.002284039,38
2,3996,49.1665,1.78012,0.113353,0,0,0,0,-0.002284039,38
2,4006,49.3119,1.75436,0.0948949,0,0,0,0,-0.002284039,38
2,4016,49.4574,1.7289,0.0738733,0,0,0,0,-0.002284039,38
2,4026,49.6029,1.70375,0.0505452,0,0,0,0,-0.002284039,38
2,4037,49.76288,1.674,0.0324005,0,0,0,0,-0.002284039,38
2,4047,49.90835,1.64671,0.0239354,0,0,0,0,-0.002284039,38
2,4057,50.05382,1.6188,0.0175252,0,0,0,0,-0.002284039,38
2,4067,50.19929,1.59119,0.0125737,0,0,0,0,-0.002284039,38
2,4077,50.34476,1.56328,0.00444418,0,0,0,0,-0.002284039,38
2,4087,50.49023,1.53568,-0.0076376,0,0,0,0,-0.002284039,38
2,4097,50.6357,1.5093,-0.0205493,0,0,0,0,-0.002284039,38
2,4107,50.78117,1.4817,-0.0317748,0,0,0,0,-0.002284039,38
2,4117,50.92664,1.4541,-0.0392707,0,0,0,0,-0.002284039,38
2,4127,51.07211,1.42588,-0.0433499,0,0,0,0,-0.002284039,38
2,4137,51.21758,1.39674,-0.0448466,0,0,0,0,-0.002284039,38
2,4147,51.36305,1.3673,-0.041252,0,0,0,0,-0.002284039,38
2,4157,51.50852,1.33663,-0.0322471,0,0,0,0,-0.002284039,38
2,4167,51.65399,1.30565,-0.0236593,0,0,0,0,-0.002284039,38
2,4177,51.79946,1.2759,-0.0184699,0,0,0,0,-0.002284039,38
2,4187,51.94493,1.24676,-0.0153476,0,0,0,0,-0.002284039,38
2,4197,52.0904,1.21609,-0.0133472,0,0,0,0,-0.002284039,38
2,4207,52.23587,1.18695,-0.0110672,0,0,0,0,-0.002284039,38
2,4217,52.38134,1.15751,-0.0090871,0,0,0,0,-0.002284039,38
2,4227,52.52681,1.12837,-0.00759712,0,0,0,0,-0.002284039,38
2,4238,52.6868,1.09617,-0.00619301,0,0,0,0,-0.002284039,38
2,4248,52.8323,1.06672,-0.00515757,0,0,0,0,-0.002284039,38
2,4258,52.9778,1.03759,-0.0042853,0,0,0,0,-0.002284039,38
2,4268,53.1232,1.00937,-0.0035351,0,0,0,0,-0.002284039,38
2,4278,53.2687,0.97962,-0.00290758,0,0,0,0,-0.002284039,38
2,4288,53.4142,0.95079,-0.00234876,0,0,0,0,-0.002284039,38
2,4298,53.5596,0.921346,-0.0018979,0,0,0,0,-0.002284039,38
2,4308,53.7051,0.891902,-0.00145685,0,0,0,0,-0.002284039,38
2,4318,53.8506,0.863072,-0.00103102,0,0,0,0,-0.002284039,38
2,4328,53.9961,0.834242,-0.000675122,0,0,0,0,-0.002284039,38
2,4338,54.1415,0.804184,-0.000361177,0,0,0,0,-0.002284039,38
2,4348,54.287,0.775661,-0.000102023,0,0,0,0,-0.002284039,38
2,4358,54.4325,0.74591,0.000102182,0,0,0,0,-0.002284039,38
2,4368,54.5779,0.717386,0.000270086,0,0,0,0,-0.002284039,38
2,4378,54.7234,0.688249,0.000399332,0,0,0,0,-0.002284039,38
2,4388,54.8689,0.659419,0.00049803,0,0,0,0,-0.002284039,38
2,4398,55.0143,0.629975,0.000542748,0,0,0,0,-0.002284039,38
2,4408,55.1598,0.600838,0.000568879,0,0,0,0,-0.002284039,38
2,4418,55.3053,0.571701,0.000547226,0,0,0,0,-0.002284039,38
2,4428,55.4508,0.542564,0.00060918,0,0,0,0,-0.002284039,38
2,4439,55.6108,0.510973,0.000621326,0,0,0,0,-0.002284039,38
2,4449,55.7562,0.482143,0.000397491,0,0,0,0,-0.002284039,38
2,4459,55.9017,0.452085,9.38215e-05,0,0,0,0,-0.002284039,38
2,4469,56.0472,0.423562,-0.000127142,0,0,0,0,-0.002284039,38
2,4479,56.1927,0.394425,-0.000250763,0,0,0,0,-0.002284039,38
2,4489,56.3381,0.365288,-0.000329709,0,0,0,0,-0.002284039,38
2,4499,56.4836,0.336457,-0.000397798,0,0,0,0,-0.002284039,38
2,4509,56.6291,0.30732,-0.000463679,0,0,0,0,-0.002284039,38
2,4519,56.7745,0.278183,-0.000535509,0,0,0,0,-0.002284039,38
2,4529,56.92,0.249659,-0.00061329,0,0,0,0,-0.002284039,38
2,4539,57.0655,0.220215,-0.000696837,0,0,0,0,-0.002284039,38
2,4549,57.2109,0.191078,-0.000780874,0,0,0,0,-0.002284039,38
2,4559,57.3564,0.161635,-0.00086847,0,0,0,0,-0.002284039,38
2,4569,57.5019,0.133418,-0.000950728,0,0,0,0,-0.002284039,38
2,4579,57.6474,0.103667,-0.00103041,0,0,0,0,-0.002284039,38
2,4589,57.7928,0.0748366,-0.00110795,0,0,0,0,-0.002284039,38
2,4599,57.9383,0.0456995,-0.00117695,0,0,0,0,-0.002284039,38
2,4609,58.0838,0.0162557,-0.00124897,0,0,0,0,-0.002284039,38
2,4619,58.2292,-0.0125747,-0.00131595,0,0,0,0,-0.002284039,38
2,4629,58.3747,-0.0420185,-0.00138251,0,0,0,0,-0.002284039,38
2,4640,58.5347,-0.0733025,-0.00145906,0,0,0,0,-0.002284039,38
2,4650,58.6802,-0.103053,-0.00152991,0,0,0,0,-0.002284039,38
2,4660,58.8257,-0.131577,-0.00160009,0,0,0,0,-0.002284039,38
2,4670,58.9711,-0.161327,-0.00168063,0,0,0,0,-0.002284039,38
2,4680,59.1166,-0.189851,-0.00176614,0,0,0,0,-0.002284039,38
2,4690,59.2621,-0.218988,-0.00185067,0,0,0,0,-0.002284039,38
2,4700,59.4075,-0.248125,-0.00195188,0,0,0,0,-0.002284039,38
2,4710,59.553,-0.277262,-0.00205248,0,0,0,0,-0.002284039,38
2,4720,59.6985,-0.306093,-0.00215553,0,0,0,0,-0.002284039,38
2,4730,59.844,-0.334923,-0.00227515,0,0,0,0,-0.002284039,38
2,4740,59.9894,-0.364674,-0.00238863,0,0,0,0,-0.002284039,38
2,4750,60.1349,-0.393197,-0.0025156,0,0,0,0,-0.002284039,38
2,4760,60.2804,-0.422334,-0.0026481,0,0,0,0,-0.002284039,38
2,4770,60.4258,-0.452085,-0.00279348,0,0,0,0,-0.002284039,38
2,4780,60.5713,-0.480915,-0.00294499,0,0,0,0,-0.002284039,38
2,4790,60.7168,-0.509439,-0.00310019,0,0,0,0,-0.002284039,38
2,4800,60.8622,-0.537963,-0.00323575,0,0,0,0,-0.002284039,38
2,4810,61.0077,-0.567406,-0.00336763,0,0,0,0,-0.002284039,38
2,4820,61.1532,-0.59685,-0.00351424,0,0,0,0,-0.002284039,38
2,4831,61.3132,-0.628441,-0.00368906,0,0,0,0,-0.002284039,38
2,4841,61.4587,-0.657578,-0.00386205,0,0,0,0,-0.002284039,38
2,4851,61.6041,-0.687329,-0.00407306,0,0,0,0,-0.002284039,38
2,4861,61.7496,-0.715852,-0.00431474,0,0,0,0,-0.002284039,38
2,4871,61.8951,-0.744989,-0.00460612,0,0,0,0,-0.002284039,38
2,4881,62.0405,-0.774127,-0.00496005,0,0,0,0,-0.002284039,38
2,4891,62.186,-0.802957,-0.00538944,0,0,0,0,-0.002284039,38
2,4901,62.3315,-0.832094,-0.005909,0,0,0,0,-0.002284039,38
2,4911,62.477,-0.860924,-0.00655431,0,0,0,0,-0.002284039,38
2,4921,62.6224,-0.890061,-0.00734132,0,0,0,0,-0.002284039,38
2,4931,62.7679,-0.919199,-0.00832094,0,0,0,0,-0.002284039,38
2,4941,62.9134,-0.948336,-0.00952446,0,0,0,0,-0.002284039,38
2,4951,63.0588,-0.976553,-0.0110101,0,0,0,0,-0.002284039,38
2,4961,63.2043,-1.00569,-0.0128719,0,0,0,0,-0.002284039,38
2,4971,63.3498,-1.03483,-0.0152132,0,0,0,0,-0.002284039,38
2,4981,63.4952,-1.06304,-0.0182656,0,0,0,0,-0.002284039,38
2,4991,63.6407,-1.08881,-0.0323391,0,0,0,0,-0.002284039,38
3,5001,63.7862,-1.08605,-0.0391909,0,0,0,0,-0.002284039,38
3,5011,63.9317,-1.05844,-0.0313331,0,0,0,0,-0.002284039,38
3,5021,64.0771,-1.03084,-0.0227085,0,0,0,0,-0.002284039,38
3,5032,64.2371,-1.00109,-0.0131099,0,0,0,0,-0.002284039,38
3,5042,64.3826,-0.973179,-0.00350872,0,0,0,0,-0.002284039,38
3,5052,64.5281,-0.945269,0.00587343,0,0,0,0,-0.002284039,38
3,5062,64.6736,-0.913678,-0.0114401,0,0,0,0,-0.002284039,38
3,5072,64.819,-0.885154,-0.0102317,0,0,0,0,-0.002284039,38
3,5082,64.9645,-0.85571,-0.00845344,0,0,0,0,-0.002284039,38
3,5092,65.11,-0.827493,-0.00688801,0,0,0,0,-0.002284039,38
3,5102,65.2554,-0.79805,-0.00561579,0,0,0,0,-0.002284039,38
3,5112,65.4009,-0.769219,-0.00462206,0,0,0,0,-0.002284039,38
3,5122,65.5464,-0.740082,-0.00387799,0,0,0,0,-0.002284039,38
3,5132,65.6918,-0.711252,-0.00332102,0,0,0,0,-0.002284039,38
3,5142,65.8373,-0.682421,-0.00291003,0,0,0,0,-0.002284039,38
3,5152,65.9828,-0.653591,-0.00259719,0,0,0,0,-0.002284039,38
3,5162,66.1283,-0.624454,-0.00236225,0,0,0,0,-0.002284039,38
3,5172,66.2737,-0.59593,-0.00216657,0,0,0,0,-0.002284039,38
3,5182,66.4192,-0.56618,-0.00200279,0,0,0,0,-0.002284039,38
3,5192,66.5647,-0.537349,-0.00184883,0,0,0,0,-0.002284039,38
3,5202,66.7101,-0.508212,-0.0016924,0,0,0,0,-0.002284039,38
3,5212,66.8556,-0.479075,-0.0015366,0,0,0,0,-0.002284039,38
3,5222,67.0011,-0.449938,-0.00138815,0,0,0,0,-0.002284039,38
3,5233,67.1611,-0.41804,-0.00121351,0,0,0,0,-0.002284039,38
3,5243,67.3066,-0.388597,-0.00105415,0,0,0,0,-0.002284039,38
3,5253,67.452,-0.360073,-0.000903925,0,0,0,0,-0.002284039,38
3,5263,67.5975,-0.330629,-0.000762227,0,0,0,0,-0.002284039,38
3,5273,67.743,-0.301799,-0.000626478,0,0,0,0,-0.002284039,38
3,5283,67.8884,-0.272662,-0.000483124,0,0,0,0,-0.002284039,38
3,5293,68.0339,-0.243218,-0.000358294,0,0,0,0,-0.002284039,38
3,5303,68.1794,-0.214081,-0.000273521,0,0,0,0,-0.002284039,38
3,5313,68.3249,-0.18525,-0.000225552,0,0,0,0,-0.002284039,38
3,5323,68.4703,-0.15642,-0.0001244,0,0,0,0,-0.002284039,38
3,5333,68.6158,-0.126976,7.68483e-05,0,0,0,0,-0.002284039,38
3,5343,68.7613,-0.097839,0.00031419,0,0,0,0,-0.002284039,38
3,5353,68.9067,-0.0687019,0.000544404,0,0,0,0,-0.002284039,38
3,5363,69.0522,-0.0401782,0.000723582,0,0,0,0,-0.002284039,38
3,5373,69.1977,-0.0107344,0.000849638,0,0,0,0,-0.002284039,38
3,5383,69.3431,0.0177893,0.000964776,0,0,0,0,-0.002284039,38
3,5393,69.4886,0.0472331,0.00107574,0,0,0,0,-0.002284039,38
3,5403,69.6341,0.0763702,0.00115389,0,0,0,0,-0.002284039,38
3,5413,69.7796,0.105507,0.00113187,0,0,0,0,-0.002284039,38
3,5423,69.925,0.134031,0.00112715,0,0,0,0,-0.002284039,38
3,5434,70.085,0.165928,0.00118174,0,0,0,0,-0.002284039,38
3,5444,70.2305,0.195679,0.00126191,0,0,0,0,-0.002284039,38
3,5454,70.376,0.224509,0.00135662,0,0,0,0,-0.002284039,38
3,5464,70.5214,0.253953,0.00146471,0,0,0,0,-0.002284039,38
3,5474,70.6669,0.282784,0.00157297,0,0,0,0,-0.002284039,38
3,5484,70.8124,0.311614,0.0016837,0,0,0,0,-0.002284039,38
3,5494,70.9579,0.341058,0.00179092,0,0,0,0,-0.002284039,38
3,5504,71.1033,0.369888,0.00190465,0,0,0,0,-0.002284039,38
3,5514,71.2488,0.399025,0.00199727,0,0,0,0,-0.002284039,38
3,5524,71.3943,0.428162,0.00206291,0,0,0,0,-0.002284039,38
3,5534,71.5397,0.457299,0.00212977,0,0,0,0,-0.002284039,38
3,5544,71.6852,0.485823,0.00222301,0,0,0,0,-0.002284039,38
3,5554,71.8307,0.516187,0.00234508,0,0,0,0,-0.002284039,38
3,5564,71.9761,0.544711,0.00252235,0,0,0,0,-0.002284039,38
3,5574,72.1216,0.572928,0.00275484,0,0,0,0,-0.002284039,38
3,5584,72.2671,0.602678,0.00312472,0,0,0,0,-0.002284039,38
3,5594,72.4126,0.631509,0.0036909,0,0,0,0,-0.002284039,38
3,5604,72.558,0.660339,0.00456502,0,0,0,0,-0.002284039,38
3,5614,72.7035,0.689169,0.00583356,0,0,0,0,-0.002284039,38
3,5624,72.849,0.718307,0.00738549,0,0,0,0,-0.002284039,38
3,5635,73.009,0.749897,0.00865035,0,0,0,0,-0.002284039,38
3,5645,73.1545,0.779034,0.00930486,0,0,0,0,-0.002284039,38
3,5655,73.2999,0.808478,0.00986429,0,0,0,0,-0.002284039,38
3,5665,73.4454,0.837002,0.0105777,0,0,0,0,-0.002284039,38
3,5675,73.5909,0.866446,0.0114248,0,0,0,0,-0.002284039,38
3,5685,73.7363,0.894969,0.0124155,0,0,0,0,-0.002284039,38
3,5695,73.8818,0.924413,0.0133724,0,0,0,0,-0.002284039,38
3,5705,74.0273,0.95263,0.0141925,0,0,0,0,-0.002284039,38
3,5715,74.1727,0.982074,0.0146876,0,0,0,0,-0.002284039,38
3,5725,74.3182,1.01121,0.0149047,0,0,0,0,-0.002284039,38
3,5735,74.4637,1.04035,0.0148593,0,0,0,0,-0.002284039,38
3,5745,74.6092,1.06949,0.014682,0,0,0,0,-0.002284039,38
3,5755,74.7546,1.09862,0.0142987,0,0,0,0,-0.002284039,38
3,5765,74.9001,1.12776,0.0142766,0,0,0,0,-0.002284039,38
3,5775,75.0456,1.15628,0.0142802,0,0,0,0,-0.002284039,38
3,5785,75.191,1.18603,0.0135503,0,0,0,0,-0.002284039,38
3,5795,75.3365,1.21486,0.0142324,0,0,0,0,-0.002284039,38
3,5805,75.482,1.244,0.0143698,0,0,0,0,-0.002284039,38
3,5815,75.6274,1.27222,0.0139429,0,0,0,0,-0.002284039,38
3,5826,75.7875,1.30534,0.0144937,0,0,0,0,-0.002284039,38
3,5836,75.9329,1.33387,0.0145624,0,0,0,0,-0.002284039,38
3,5846,76.0784,1.363,0.0148605,0,0,0,0,-0.002284039,38
3,5856,76.2239,1.39214,0.0156978,0,0,0,0,-0.002284039,38
3,5866,76.3693,1.42128,0.0168449,0,0,0,0,-0.002284039,38
3,5876,76.5148,1.4498,0.0181515,0,0,0,0,-0.002284039,38
3,5886,76.6603,1.47771,0.0221013,0,0,0,0,-0.002284039,38
3,5896,76.8058,1.50593,0.0279532,0,0,0,0,-0.002284039,38
3,5906,76.9512,1.53384,0.0341671,0,0,0,0,-0.002284039,38
3,5916,77.0967,1.56175,0.0406447,0,0,0,0,-0.002284039,38
3,5926,77.2422,1.58935,0.0476192,0,0,0,0,-0.002284039,38
3,5936,77.3876,1.61726,0.0551029,0,0,0,0,-0.002284039,38
3,5946,77.5331,1.64517,0.0630466,0,0,0,0,-0.002284039,38
3,5956,77.6786,1.67308,0.0706897,0,0,0,0,-0.002284039,38
3,5966,77.824,1.70038,0.0793756,0,0,0,0,-0.002284039,38
3,5976,77.9695,1.72768,0.0879143,0,0,0,0,-0.002284039,38
3,5986,78.115,1.75528,0.0967597,0,0,0,0,-0.002284039,38
3,5996,78.2605,1.77951,0.104151,0,0,0,0,-0.002284039,38
3,6006,78.4059,1.75344,0.0874665,0,0,0,0,-0.002284039,38
3,6016,78.5514,1.72706,0.0716343,0,0,0,0,-0.002284039,38
3,6027,78.71141,1.69854,0.0533608,0,0,0,0,-0.002284039,38
3,6037,78.85688,1.67155,0.0380745,0,0,0,0,-0.002284039,38
3,6047,79.00235,1.64456,0.0258921,0,0,0,0,-0.002284039,38
3,6057,79.14782,1.61726,0.0171633,0,0,0,0,-0.002284039,38
3,6067,79.29329,1.58966,0.00976614,0,0,0,0,-0.002284039,38
3,6077,79.43876,1.56206,-0.00176669,0,0,0,0,-0.002284039,38
3,6087,79.58423,1.53415,-0.0144514,0,0,0,0,-0.002284039,38
3,6097,79.7297,1.50746,-0.0250824,0,0,0,0,-0.002284039,38
3,6107,79.87517,1.48017,-0.0330139,0,0,0,0,-0.002284039,38
3,6117,80.02064,1.45195,-0.0377985,0,0,0,0,-0.002284039,38
3,6127,80.16611,1.42312,-0.0401908,0,0,0,0,-0.002284039,38
3,6137,80.31158,1.39367,-0.0387615,0,0,0,0,-0.002284039,38
3,6147,80.45705,1.36362,-0.0317196,0,0,0,0,-0.002284039,38
3,6157,80.60252,1.33325,-0.0231195,0,0,0,0,-0.002284039,38
3,6167,80.74799,1.30258,-0.0172553,0,0,0,0,-0.002284039,38
3,6177,80.89346,1.27283,-0.0135846,0,0,0,0,-0.002284039,38
3,6187,81.03893,1.24308,-0.0111494,0,0,0,0,-0.002284039,38
3,6197,81.1844,1.21364,-0.00922695,0,0,0,0,-0.002284039,38
3,6207,81.32987,1.18481,-0.00754068,0,0,0,0,-0.002284039,38
3,6217,81.47534,1.15536,-0.00610223,0,0,0,0,-0.002284039,38
3,6227,81.62081,1.12623,-0.00492754,0,0,0,0,-0.002284039,38
3,6237,81.76628,1.09678,-0.00381052,0,0,0,0,-0.002284039,38
3,6247,81.91175,1.06826,-0.0029634,0,0,0,0,-0.002284039,38
3,6257,82.05722,1.0382,-0.00223773,0,0,0,0,-0.002284039,38
3,6267,82.20269,1.00937,-0.00163658,0,0,0,0,-0.002284039,38
3,6277,82.34816,0.97962,-0.00110647,0,0,0,0,-0.002284039,38
3,6287,82.49363,0.951097,-0.000685427,0,0,0,0,-0.002284039,38
3,6297,82.6391,0.921653,-0.000254075,0,0,0,0,-0.002284039,38
3,6307,82.78457,0.892822,5.23241e-05,0,0,0,0,-0.002284039,38
3,6317,82.93004,0.863992,0.000262234,0,0,0,0,-0.002284039,38
3,6327,83.07551,0.833935,-0.000537595,0,0,0,0,-0.002284039,38
3,6337,83.22098,0.805718,-0.000622368,0,0,0,0,-0.002284039,38
3,6347,83.36645,0.776581,-0.000537963,0,0,0,0,-0.002284039,38
3,6357,83.51192,0.747444,-0.000455643,0,0,0,0,-0.002284039,38
3,6367,83.65739,0.718307,-0.000372464,0,0,0,0,-0.002284039,38
3,6377,83.80286,0.689169,-0.000284378,0,0,0,0,-0.002284039,38
3,6387,83.94833,0.660646,-0.000196844,0,0,0,0,-0.002284039,38
3,6397,84.0938,0.631202,-0.000107795,0,0,0,0,-0.002284039,38
3,6407,84.23927,0.601758,-3.997e-05,0,0,0,0,-0.002284039,38
3,6417,84.38474,0.572928,-6.988e-06,0,0,0,0,-0.002284039,38
3,6427,84.53021,0.543177,2.46592e-06,0,0,0,0,-0.002284039,38
3,6437,84.67568,0.514654,6.37336e-07,0,0,0,0,-0.002284039,38
3,6447,84.82115,0.484903,-8.64544e-06,0,0,0,0,-0.002284039,38
3,6457,84.96662,0.456379,-2.37207e-05,0,0,0,0,-0.002284039,38
3,6467,85.11209,0.427242,-5.54648e-05,0,0,0,0,-0.002284039,38
3,6477,85.25756,0.399332,-9.15518e-05,0,0,0,0,-0.002284039,38
3,6487,85.40303,0.370195,-0.000135288,0,0,0,0,-0.002284039,38
3,6497,85.5485,0.340751,-0.000182386,0,0,0,0,-0.002284039,38
3,6507,85.69397,0.311307,-0.000237697,0,0,0,0,-0.002284039,38
3,6517,85.83944,0.282477,-0.000299897,0,0,0,0,-0.002284039,38
3,6527,85.98491,0.253033,-0.000366759,0,0,0,0,-0.002284039,38
3,6537,86.13038,0.224203,-0.000437731,0,0,0,0,-0.002284039,38
3,6547,86.27585,0.195066,-0.00051999,0,0,0,0,-0.002284039,38
3,6557,86.42132,0.165928,-0.000607831,0,0,0,0,-0.002284039,38
3,6567,86.56679,0.136791,-0.000705056,0,0,0,0,-0.002284039,38
3,6577,86.71226,0.108268,-0.000817372,0,0,0,0,-0.002284039,38
3,6587,86.85773,0.0788238,-0.000926989,0,0,0,0,-0.002284039,38
3,6597,87.0032,0.0499934,-0.00106237,0,0,0,0,-0.002284039,38
3,6607,87.14867,0.0205496,-0.00118757,0,0,0,0,-0.002284039,38
3,6617,87.29414,-0.00828078,-0.00132693,0,0,0,0,-0.002284039,38
3,6627,87.43961,-0.0374179,-0.00146287,0,0,0,0,-0.002284039,38
3,6637,87.58508,-0.066555,-0.00157739,0,0,0,0,-0.002284039,38
3,6647,87.73055,-0.0959988,-0.00168713,0,0,0,0,-0.002284039,38
3,6657,87.87602,-0.124829,-0.00179215,0,0,0,0,-0.002284039,38
3,6667,88.02149,-0.153966,-0.00190158,0,0,0,0,-0.002284039,38
3,6678,88.1815,-0.18617,-0.0020169,0,0,0,0,-0.002284039,38
3,6688,88.327,-0.215001,-0.00211995,0,0,0,0,-0.002284039,38
3,6698,88.4724,-0.244445,-0.00221565,0,0,0,0,-0.002284039,38
3,6708,88.6179,-0.273275,-0.00231318,0,0,0,0,-0.002284039,38
3,6718,88.7634,-0.302105,-0.00240948,0,0,0,0,-0.002284039,38
3,6728,88.9089,-0.330936,-0.00250518,0,0,0,0,-0.002284039,38
3,6738,89.0543,-0.36038,-0.00259964,0,0,0,0,-0.002284039,38
3,6748,89.1998,-0.389517,-0.00269902,0,0,0,0,-0.002284039,38
3,6758,89.3453,-0.418961,-0.00280698,0,0,0,0,-0.002284039,38
3,6768,89.4907,-0.447791,-0.00290451,0,0,0,0,-0.002284039,38
3,6778,89.6362,-0.476621,-0.00301002,0,0,0,0,-0.002284039,38
3,6788,89.7817,-0.506065,-0.00313331,0,0,0,0,-0.002284039,38
3,6798,89.9271,-0.534896,-0.0032609,0,0,0,0,-0.002284039,38
3,6808,90.0726,-0.564033,-0.00340751,0,0,0,0,-0.002284039,38
3,6818,90.2181,-0.59317,-0.00354062,0,0,0,0,-0.002284039,38
3,6828,90.3636,-0.622307,-0.00367802,0,0,0,0,-0.002284039,38
3,6838,90.509,-0.651137,-0.00380929,0,0,0,0,-0.002284039,38
3,6848,90.6545,-0.679968,-0.00395344,0,0,0,0,-0.002284039,38
3,6858,90.8,-0.709411,-0.00412397,0,0,0,0,-0.002284039,38
3,6868,90.9454,-0.737935,-0.00431842,0,0,0,0,-0.002284039,38
3,6879,91.1055,-0.770446,-0.00457544,0,0,0,0,-0.002284039,38
3,6889,91.2509,-0.79897,-0.00486252,0,0,0,0,-0.002284039,38
3,6899,91.3964,-0.828414,-0.00520419,0,0,0,0,-0.002284039,38
3,6909,91.5419,-0.857244,-0.00562683,0,0,0,0,-0.002284039,38
3,6919,91.6873,-0.886074,-0.00613719,0,0,0,0,-0.002284039,38
3,6929,91.8328,-0.915211,-0.00676594,0,0,0,0,-0.002284039,38
3,6939,91.9783,-0.944655,-0.00755418,0,0,0,0,-0.002284039,38
3,6949,92.1237,-0.973486,-0.00853502,0,0,0,0,-0.002284039,38
3,6959,92.2692,-1.00262,-0.00978148,0,0,0,0,-0.002284039,38
3,6969,92.4147,-1.03145,-0.011353,0,0,0,0,-0.002284039,38
3,6979,92.5602,-1.06028,-0.0133773,0,0,0,0,-0.002284039,38
3,6989,92.7056,-1.08911,-0.0159714,0,0,0,0,-0.002284039,38
4,6999,92.8159,-1.09034,-0.0176301,0,0,0,0,-0.002284039,38
4,7009,92.8909,-1.07531,-0.0168462,0,0,0,0,-0.002284039,38
4,7019,92.9659,-1.06059,-0.0160549,0,0,0,0,-0.002284039,38
4,7029,93.0409,-1.04587,-0.0152562,0,0,0,0,-0.002284039,38
4,7040,93.1234,-1.02931,-0.0143324,0,0,0,0,-0.002284039,38
4,7050,93.1984,-1.01489,-0.0135024,0,0,0,0,-0.002284039,38
4,7060,93.2734,-0.999556,-0.0126332,0,0,0,0,-0.002284039,38
4,7070,93.3484,-0.984834,-0.0117837,0,0,0,0,-0.002284039,38
4,7080,93.4234,-0.969805,-0.0109279,0,0,0,0,-0.002284039,38
4,7090,93.4985,-0.95447,-0.0100913,0,0,0,0,-0.002284039,38
4,7100,93.5735,-0.940055,-0.00928891,0,0,0,0,-0.002284039,38
4,7110,93.6485,-0.924719,-0.00851233,0,0,0,0,-0.002284039,38
4,7120,93.7235,-0.909997,-0.00777623,0,0,0,0,-0.002284039,38
4,7130,93.7985,-0.895276,-0.00709534,0,0,0,0,-0.002284039,38
4,7140,93.8735,-0.880554,-0.00646537,0,0,0,0,-0.002284039,38
4,7150,93.9485,-0.865525,-0.00590471,0,0,0,0,-0.002284039,38
4,7160,94.0235,-0.850803,-0.00539926,0,0,0,0,-0.002284039,38
4,7170,94.0985,-0.835774,-0.00495883,0,0,0,0,-0.002284039,38
4,7180,94.1735,-0.820439,-0.00457176,0,0,0,0,-0.002284039,38
4,7190,94.2486,-0.805104,-0.00424052,0,0,0,0,-0.002284039,38
4,7200,94.3236,-0.790689,-0.00394792,0,0,0,0,-0.002284039,38
4,7210,94.3986,-0.77566,-0.0037044,0,0,0,0,-0.002284039,38
4,7220,94.4736,-0.760631,-0.00349338,0,0,0,0,-0.002284039,38
4,7230,94.5486,-0.745603,-0.00331243,0,0,0,0,-0.002284039,38
4,7241,94.6311,-0.729347,-0.00314619,0,0,0,0,-0.002284039,38
4,7251,94.7061,-0.714319,-0.0030137,0,0,0,0,-0.002284039,38
4,7261,94.7811,-0.699597,-0.00289531,0,0,0,0,-0.002284039,38
4,7271,94.8561,-0.683955,-0.00279103,0,0,0,0,-0.002284039,38
4,7282,94.9386,-0.668313,-0.00268859,0,0,0,0,-0.002284039,38
4,7292,95.0137,-0.652978,-0.00259964,0,0,0,0,-0.002284039,38
4,7302,95.0887,-0.637642,-0.00251438,0,0,0,0,-0.002284039,38
4,7312,95.1637,-0.622614,-0.00243463,0,0,0,0,-0.002284039,38
4,7322,95.2387,-0.607892,-0.0023506,0,0,0,0,-0.002284039,38
4,7332,95.3137,-0.592863,-0.00226779,0,0,0,0,-0.002284039,38
4,7342,95.3887,-0.577834,-0.00218682,0,0,0,0,-0.002284039,38
4,7352,95.4637,-0.562806,-0.00210646,0,0,0,0,-0.002284039,38
4,7362,95.5387,-0.548084,-0.00202917,0,0,0,0,-0.002284039,38
4,7372,95.6137,-0.532749,-0.00194574,0,0,0,0,-0.002284039,38
4,7382,95.6887,-0.51772,-0.00186539,0,0,0,0,-0.002284039,38
4,7392,95.7638,-0.503305,-0.0017838,0,0,0,0,-0.002284039,38
4,7402,95.8388,-0.488276,-0.00169547,0,0,0,0,-0.002284039,38
4,7412,95.9138,-0.472941,-0.00160653,0,0,0,0,-0.002284039,38
4,7422,95.9888,-0.457912,-0.00151942,0,0,0,0,-0.002284039,38
4,7433,96.0713,-0.441657,-0.00142189,0,0,0,0,-0.002284039,38
4,7443,96.1463,-0.426628,-0.00133344,0,0,0,0,-0.002284039,38
4,7453,96.2213,-0.411906,-0.00124817,0,0,0,0,-0.002284039,38
4,7463,96.2963,-0.396571,-0.00116444,0,0,0,0,-0.002284039,38
4,7473,96.3713,-0.381236,-0.00107954,0,0,0,0,-0.002284039,38
4,7484,96.4538,-0.364674,-0.000997164,0,0,0,0,-0.002284039,38
4,7494,96.5289,-0.350258,-0.000914537,0,0,0,0,-0.002284039,38
4,7504,96.6039,-0.334923,-0.000827739,0,0,0,0,-0.002284039,38
4,7514,96.6789,-0.320508,-0.000744683,0,0,0,0,-0.002284039,38
4,7524,96.7539,-0.305173,-0.000666657,0,0,0,0,-0.002284039,38
4,7534,96.8289,-0.290451,-0.000600838,0,0,0,0,-0.002284039,38
4,7544,96.9039,-0.274809,-0.000551703,0,0,0,0,-0.002284039,38
4,7554,96.9789,-0.25978,-0.000512813,0,0,0,0,-0.002284039,38
4,7564,97.0539,-0.245058,-0.000495944,0,0,0,0,-0.002284039,38
4,7574,97.1289,-0.230029,-0.000474352,0,0,0,0,-0.002284039,38
4,7584,97.2039,-0.215001,-0.000416262,0,0,0,0,-0.002284039,38
4,7594,97.279,-0.199666,-0.000323207,0,0,0,0,-0.002284039,38
4,7604,97.354,-0.18525,-0.000210094,0,0,0,0,-0.002284039,38
4,7614,97.429,-0.170528,-8.39394e-05,0,0,0,0,-0.002284039,38
4,7624,97.519,-0.152126,2.01009e-05,0,0,0,0,-0.002284039,38
4,7635,97.6015,-0.135871,0.00020353,0,0,0,0,-0.002284039,38
4,7645,97.6765,-0.121149,0.000318484,0,0,0,0,-0.002284039,38
4,7655,97.7515,-0.105813,0.000423377,0,0,0,0,-0.002284039,38
4,7665,97.8265,-0.0910915,0.000506004,0,0,0,0,-0.002284039,38
4,7676,97.909,-0.0745293,0.000601819,0,0,0,0,-0.002284039,38
4,7686,97.9841,-0.0595007,0.000659357,0,0,0,0,-0.002284039,38
4,7696,98.0591,-0.0444721,0.000737077,0,0,0,0,-0.002284039,38
4,7706,98.1341,-0.0291368,0.000787867,0,0,0,0,-0.002284039,38
4,7716,98.2091,-0.0141082,0.000853564,0,0,0,0,-0.002284039,38
4,7726,98.2841,0.000613706,0.000908035,0,0,0,0,-0.002284039,38
4,7736,98.3591,0.0156423,0.000965512,0,0,0,0,-0.002284039,38
4,7746,98.4341,0.0303642,0.000986613,0,0,0,0,-0.002284039,38
4,7756,98.5091,0.0456995,0.000987962,0,0,0,0,-0.002284039,38
4,7766,98.5841,0.0610349,0.000954654,0,0,0,0,-0.002284039,38
4,7776,98.6591,0.0751433,0.000935638,0,0,0,0,-0.002284039,38
4,7786,98.7342,0.0904787,0.000931774,0,0,0,0,-0.002284039,38
4,7796,98.8092,0.105507,0.000948949,0,0,0,0,-0.002284039,38
4,7806,98.8842,0.120843,0.000974406,0,0,0,0,-0.002284039,38
4,7816,98.9592,0.135564,0.00101127,0,0,0,0,-0.002284039,38
4,7827,99.0417,0.152127,0.00106801,0,0,0,0,-0.002284039,38
4,7837,99.1167,0.167155,0.00111727,0,0,0,0,-0.002284039,38
4,7847,99.1917,0.18157,0.00118021,0,0,0,0,-0.002284039,38
4,7857,99.2667,0.196599,0.00123572,0,0,0,0,-0.002284039,38
4,7867,99.3417,0.212241,0.00129559,0,0,0,0,-0.002284039,38
4,7878,99.4242,0.22911,0.00135785,0,0,0,0,-0.002284039,38
4,7888,99.4993,0.243525,0.00141134,0,0,0,0,-0.002284039,38
4,7898,99.5743,0.258554,0.00146158,0,0,0,0,-0.002284039,38
4,7908,99.6493,0.273889,0.00151623,0,0,0,0,-0.002284039,38
4,7918,99.7243,0.288304,0.00156794,0,0,0,0,-0.002284039,38
4,7928,99.7993,0.303333,0.00162947,0,0,0,0,-0.002284039,38
4,7938,99.8743,0.318055,0.00168376,0,0,0,0,-0.002284039,38
4,7948,99.9493,0.333697,0.00174301,0,0,0,0,-0.002284039,38
4,7958,100.024,0.348112,0.0017865,0,0,0,0,-0.002284039,38
4,7968,100.099,0.363141,0.00182368,0,0,0,0,-0.002284039,38
4,7978,100.174,0.378476,0.00187091,0,0,0,0,-0.002284039,38
4,7988,100.249,0.393505,0.00190833,0,0,0,0,-0.002284039,38
4,7992,100.279,0.399639,0.00192796,0,0,0,0,-0.002284039,38