File: Feb25/CV02.11.25/secondelectrode-1.0CV_650_FLiNaK_Ni_02_11_25_200mVperS_sh15.csv
Segment,Point,Elapsed Time (s),Potential (V),Current (A),Frequency (Hz),|Z| (ohms),Zre (ohms),Zim (ohms),Phase of Z (deg),ActionId
0,0,0.0051,-0.000919825,-0.00018157,0,0,0,0,-0.002284039,38
0,10,0.0561,-0.0107344,-0.000234078,0,0,0,0,-0.002284039,38
0,20,0.1071,-0.0211624,-0.00025199,0,0,0,0,-0.002284039,38
0,30,0.1581,-0.0312838,-0.000266221,0,0,0,0,-0.002284039,38
0,40,0.2091,-0.0417118,-0.000283397,0,0,0,0,-0.002284039,38
0,50,0.2601,-0.0518331,-0.000302903,0,0,0,0,-0.002284039,38
0,61,0.3162,-0.0634879,-0.000321674,0,0,0,0,-0.002284039,38
0,71,0.3672,-0.0733025,-0.000337009,0,0,0,0,-0.002284039,38
0,81,0.4182,-0.0834238,-0.000356883,0,0,0,0,-0.002284039,38
0,91,0.4692,-0.0938518,-0.0003805,0,0,0,0,-0.002284039,38
0,101,0.5202,-0.10428,-0.000406754,0,0,0,0,-0.002284039,38
0,111,0.5712,-0.114094,-0.000431352,0,0,0,0,-0.002284039,38
0,122,0.6273,-0.125749,-0.000458771,0,0,0,0,-0.002284039,38
0,132,0.6783,-0.135257,-0.000485087,0,0,0,0,-0.002284039,38
0,142,0.7293,-0.145685,-0.000515512,0,0,0,0,-0.002284039,38
0,152,0.7803,-0.156113,-0.000543729,0,0,0,0,-0.002284039,38
0,162,0.8313,-0.165928,-0.000564708,0,0,0,0,-0.002284039,38
0,172,0.8823,-0.176663,-0.000598875,0,0,0,0,-0.002284039,38
0,183,0.9384,-0.187091,-0.000629484,0,0,0,0,-0.002284039,38
0,193,0.9894,-0.197519,-0.000656965,0,0,0,0,-0.002284039,38
0,203,1.0404,-0.207947,-0.000689414,0,0,0,0,-0.002284039,38
0,213,1.0914,-0.218068,-0.000713644,0,0,0,0,-0.002284039,38
0,223,1.1424,-0.228189,-0.000743272,0,0,0,0,-0.002284039,38
0,233,1.1934,-0.238311,-0.00077155,0,0,0,0,-0.002284039,38
0,244,1.2495,-0.249352,-0.000801301,0,0,0,0,-0.002284039,38
0,254,1.3005,-0.25978,-0.000823874,0,0,0,0,-0.002284039,38
0,264,1.3515,-0.270821,-0.000847982,0,0,0,0,-0.002284039,38
0,274,1.4025,-0.280023,-0.000871475,0,0,0,0,-0.002284039,38
0,284,1.4535,-0.290451,-0.000896625,0,0,0,0,-0.002284039,38
0,294,1.5045,-0.300572,-0.000913923,0,0,0,0,-0.002284039,38
0,305,1.5606,-0.312533,-0.000935209,0,0,0,0,-0.002284039,38
0,315,1.6116,-0.322041,-0.000947477,0,0,0,0,-0.002284039,38
0,325,1.6626,-0.332163,-0.000963058,0,0,0,0,-0.002284039,38
0,335,1.7136,-0.342284,-0.000973977,0,0,0,0,-0.002284039,38
0,345,1.7646,-0.353019,-0.000984343,0,0,0,0,-0.002284039,38
0,355,1.8156,-0.362833,-0.000990048,0,0,0,0,-0.002284039,38
0,366,1.8717,-0.374181,-0.000996366,0,0,0,0,-0.002284039,38
0,376,1.9227,-0.383996,-0.00100692,0,0,0,0,-0.002284039,38
0,386,1.9737,-0.394117,-0.00100974,0,0,0,0,-0.002284039,38
0,396,2.0247,-0.404545,-0.00101189,0,0,0,0,-0.002284039,38
0,406,2.0757,-0.414973,-0.00101753,0,0,0,0,-0.002284039,38
0,416,2.1267,-0.425401,-0.00102385,0,0,0,0,-0.002284039,38
0,426,2.1777,-0.435523,-0.0010274,0,0,0,0,-0.002284039,38
0,436,2.2287,-0.445337,-0.00102875,0,0,0,0,-0.002284039,38
0,446,2.2797,-0.456072,-0.00103378,0,0,0,0,-0.002284039,38
0,456,2.3307,-0.465887,-0.00103642,0,0,0,0,-0.002284039,38
0,466,2.3817,-0.476008,-0.00104262,0,0,0,0,-0.002284039,38
0,476,2.4327,-0.485823,-0.0010555,0,0,0,0,-0.002284039,38
0,486,2.4837,-0.496557,-0.0010655,0,0,0,0,-0.002284039,38
0,496,2.5347,-0.506372,-0.00107335,0,0,0,0,-0.002284039,38
0,506,2.5857,-0.517413,-0.00109341,0,0,0,0,-0.002284039,38
0,516,2.6367,-0.527228,-0.00110887,0,0,0,0,-0.002284039,38
0,526,2.6877,-0.537042,-0.00113046,0,0,0,0,-0.002284039,38
0,537,2.7438,-0.548084,-0.00115377,0,0,0,0,-0.002284039,38
0,547,2.7948,-0.558205,-0.00118475,0,0,0,0,-0.002284039,38
0,557,2.8458,-0.568327,-0.00121713,0,0,0,0,-0.002284039,38
0,567,2.8968,-0.578755,-0.00124695,0,0,0,0,-0.002284039,38
0,577,2.9478,-0.588876,-0.0012786,0,0,0,0,-0.002284039,38
0,587,2.9988,-0.599304,-0.00132117,0,0,0,0,-0.002284039,38
0,598,3.0549,-0.610652,-0.00135589,0,0,0,0,-0.002284039,38
0,608,3.1059,-0.620773,-0.0014079,0,0,0,0,-0.002284039,38
0,618,3.1569,-0.630895,-0.00145575,0,0,0,0,-0.002284039,38
0,628,3.2079,-0.641323,-0.00150194,0,0,0,0,-0.002284039,38
0,638,3.2589,-0.651444,-0.0015577,0,0,0,0,-0.002284039,38
0,648,3.3099,-0.661259,-0.00161849,0,0,0,0,-0.002284039,38
0,659,3.366,-0.672913,-0.00167879,0,0,0,0,-0.002284039,38
0,669,3.417,-0.683035,-0.00172841,0,0,0,0,-0.002284039,38
0,679,3.468,-0.692543,-0.00178166,0,0,0,0,-0.002284039,38
0,690,3.5241,-0.704197,-0.00182613,0,0,0,0,-0.002284039,38
0,700,3.5751,-0.714319,-0.00186232,0,0,0,0,-0.002284039,38
0,711,3.6312,-0.725667,-0.00190342,0,0,0,0,-0.002284039,38
0,721,3.6822,-0.735788,-0.00191691,0,0,0,0,-0.002284039,38
0,731,3.7332,-0.746523,-0.00193041,0,0,0,0,-0.002284039,38
0,741,3.7842,-0.756644,-0.00193838,0,0,0,0,-0.002284039,38
0,751,3.8352,-0.766766,-0.00193593,0,0,0,0,-0.002284039,38
0,761,3.8862,-0.776273,-0.00194268,0,0,0,0,-0.002284039,38
0,772,3.9423,-0.788235,-0.00194022,0,0,0,0,-0.002284039,38
0,782,3.9933,-0.79805,-0.00193716,0,0,0,0,-0.002284039,38
0,792,4.0443,-0.807864,-0.00194206,0,0,0,0,-0.002284039,38
0,802,4.0953,-0.817986,-0.00194574,0,0,0,0,-0.002284039,38
0,812,4.1463,-0.82872,-0.0019574,0,0,0,0,-0.002284039,38
0,822,4.1973,-0.838842,-0.00196353,0,0,0,0,-0.002284039,38
0,833,4.2534,-0.85019,-0.00196721,0,0,0,0,-0.002284039,38
0,843,4.3044,-0.860618,-0.00197151,0,0,0,0,-0.002284039,38
0,853,4.3554,-0.870432,-0.00198439,0,0,0,0,-0.002284039,38
0,863,4.4064,-0.88086,-0.00198746,0,0,0,0,-0.002284039,38
0,873,4.4574,-0.890675,-0.00199972,0,0,0,0,-0.002284039,38
0,883,4.5084,-0.90141,-0.00200402,0,0,0,0,-0.002284039,38
0,893,4.5594,-0.911224,-0.00200709,0,0,0,0,-0.002284039,38
0,903,4.6104,-0.921346,-0.00202365,0,0,0,0,-0.002284039,38
0,913,4.6614,-0.931774,-0.00202058,0,0,0,0,-0.002284039,38
0,923,4.7124,-0.941895,-0.0020304,0,0,0,0,-0.002284039,38
0,933,4.7634,-0.952016,-0.00203592,0,0,0,0,-0.002284039,38
0,943,4.8144,-0.962444,-0.00203162,0,0,0,0,-0.002284039,38
0,953,4.8654,-0.972566,-0.00203898,0,0,0,0,-0.002284039,38
0,963,4.9164,-0.98238,-0.0020445,0,0,0,0,-0.002284039,38
0,973,4.9674,-0.993115,-0.00204757,0,0,0,0,-0.002284039,38
0,983,5.0184,-1.00262,-0.00205064,0,0,0,0,-0.002284039,38
0,993,5.0694,-1.01336,-0.00205984,0,0,0,0,-0.002284039,38
1,1004,5.170535,-1.0063,-0.0016648,0,0,0,0,-0.002284039,38
1,1014,5.311605,-0.978393,-0.00152617,0,0,0,0,-0.002284039,38
1,1024,5.452675,-0.949869,-0.00141882,0,0,0,0,-0.002284039,38
1,1034,5.593745,-0.921652,-0.00131976,0,0,0,0,-0.002284039,38
1,1044,5.734815,-0.893435,-0.00123143,0,0,0,0,-0.002284039,38
1,1054,5.875885,-0.865218,-0.00112083,0,0,0,0,-0.002284039,38
1,1064,6.016955,-0.837308,-0.00100244,0,0,0,0,-0.002284039,38
1,1074,6.158025,-0.809704,-0.000856324,0,0,0,0,-0.002284039,38
1,1084,6.299095,-0.780567,-0.000680827,0,0,0,0,-0.002284039,38
1,1094,6.440165,-0.752964,-0.000479137,0,0,0,0,-0.002284039,38
1,1104,6.581235,-0.72444,-0.000263093,0,0,0,0,-0.002284039,38
1,1114,6.722305,-0.696223,-5.38392e-05,0,0,0,0,-0.002284039,38
1,1124,6.863375,-0.668006,0.000124535,0,0,0,0,-0.002284039,38
1,1134,7.004445,-0.639789,0.000239292,0,0,0,0,-0.002284039,38
1,1144,7.145515,-0.611572,0.00026984,0,0,0,0,-0.002284039,38
1,1154,7.286585,-0.583355,0.000209665,0,0,0,0,-0.002284039,38
1,1164,7.427655,-0.554525,0.000122443,0,0,0,0,-0.002284039,38
1,1174,7.568725,-0.526921,7.7106e-05,0,0,0,0,-0.002284039,38
1,1185,7.723902,-0.495944,5.37472e-05,0,0,0,0,-0.002284039,38
1,1195,7.864972,-0.46742,4.69813e-05,0,0,0,0,-0.002284039,38
1,1205,8.006042,-0.43951,7.46523e-05,0,0,0,0,-0.002284039,38
1,1215,8.147112,-0.411293,0.000147759,0,0,0,0,-0.002284039,38
1,1225,8.288182,-0.383076,0.000241623,0,0,0,0,-0.002284039,38
1,1235,8.429252,-0.354859,0.000345167,0,0,0,0,-0.002284039,38
1,1245,8.570322,-0.326642,0.000413624,0,0,0,0,-0.002284039,38
1,1255,8.711392,-0.298425,0.000435462,0,0,0,0,-0.002284039,38
1,1265,8.852462,-0.270515,0.000457974,0,0,0,0,-0.002284039,38
1,1276,9.007639,-0.239537,0.00051404,0,0,0,0,-0.002284039,38
1,1286,9.148709,-0.211014,0.000563665,0,0,0,0,-0.002284039,38
1,1296,9.289779,-0.183103,0.000596544,0,0,0,0,-0.002284039,38
1,1306,9.430849,-0.15458,0.00062108,0,0,0,0,-0.002284039,38
1,1316,9.571919,-0.126363,0.000646905,0,0,0,0,-0.002284039,38
1,1326,9.712989,-0.0984524,0.000669295,0,0,0,0,-0.002284039,38
1,1336,9.854059,-0.0699288,0.000704995,0,0,0,0,-0.002284039,38
1,1346,9.995129,-0.0420185,0.000777317,0,0,0,0,-0.002284039,38
1,1356,10.1362,-0.0131881,0.000911286,0,0,0,0,-0.002284039,38
1,1366,10.2773,0.0141088,0.00113659,0,0,0,0,-0.002284039,38
1,1376,10.4183,0.0429392,0.00157021,0,0,0,0,-0.002284039,38
1,1386,10.5594,0.0708495,0.00231073,0,0,0,0,-0.002284039,38
1,1396,10.7005,0.098453,0.00336028,0,0,0,0,-0.002284039,38
1,1406,10.8415,0.126977,0.00406325,0,0,0,0,-0.002284039,38
1,1416,10.9826,0.154887,0.00406263,0,0,0,0,-0.002284039,38
1,1426,11.1237,0.183717,0.00389578,0,0,0,0,-0.002284039,38
1,1436,11.2648,0.211628,0.00386266,0,0,0,0,-0.002284039,38
1,1446,11.4058,0.239538,0.00400927,0,0,0,0,-0.002284039,38
1,1456,11.5469,0.268368,0.00426076,0,0,0,0,-0.002284039,38
1,1466,11.688,0.295972,0.0043632,0,0,0,0,-0.002284039,38
1,1476,11.829,0.323882,0.00470488,0,0,0,0,-0.002284039,38
1,1486,11.9701,0.352406,0.00497539,0,0,0,0,-0.002284039,38
1,1496,12.1112,0.380623,0.00533669,0,0,0,0,-0.002284039,38
1,1506,12.2522,0.409147,0.00572989,0,0,0,0,-0.002284039,38
1,1516,12.3933,0.437364,0.00606113,0,0,0,0,-0.002284039,38
1,1526,12.5344,0.465274,0.00635373,0,0,0,0,-0.002284039,38
1,1536,12.6755,0.493491,0.00660952,0,0,0,0,-0.002284039,38
1,1547,12.8306,0.524468,0.00669049,0,0,0,0,-0.002284039,38
1,1557,12.9717,0.552685,0.00656965,0,0,0,0,-0.002284039,38
1,1567,13.1128,0.580595,0.00652733,0,0,0,0,-0.002284039,38
1,1577,13.2538,0.608812,0.0065218,0,0,0,0,-0.002284039,38
1,1587,13.3949,0.637336,0.00640096,0,0,0,0,-0.002284039,38
1,1597,13.536,0.665246,0.00633287,0,0,0,0,-0.002284039,38
1,1607,13.6771,0.693463,0.00635128,0,0,0,0,-0.002284039,38
1,1617,13.8181,0.72168,0.00637152,0,0,0,0,-0.002284039,38
1,1627,13.9592,0.749897,0.00663529,0,0,0,0,-0.002284039,38
1,1637,14.1003,0.778114,0.00694935,0,0,0,0,-0.002284039,38
1,1647,14.2413,0.806331,0.00731372,0,0,0,0,-0.002284039,38
1,1657,14.3824,0.834548,0.00800688,0,0,0,0,-0.002284039,38
1,1667,14.5235,0.862152,0.00885155,0,0,0,0,-0.002284039,38
1,1677,14.6645,0.890982,0.00983791,0,0,0,0,-0.002284039,38
1,1687,14.8056,0.918279,0.0109605,0,0,0,0,-0.002284039,38
1,1697,14.9467,0.946803,0.0119493,0,0,0,0,-0.002284039,38
1,1707,15.0878,0.974713,0.0128093,0,0,0,0,-0.002284039,38
1,1717,15.2288,1.00293,0.0132841,0,0,0,0,-0.002284039,38
1,1727,15.3699,1.03115,0.0137429,0,0,0,0,-0.002284039,38
1,1737,15.511,1.05936,0.0142361,0,0,0,0,-0.002284039,38
1,1747,15.652,1.08758,0.0147489,0,0,0,0,-0.002284039,38
1,1757,15.7931,1.11549,0.0154488,0,0,0,0,-0.002284039,38
1,1767,15.9342,1.14432,0.0159923,0,0,0,0,-0.002284039,38
1,1777,16.0752,1.17223,0.0164309,0,0,0,0,-0.002284039,38
1,1787,16.2163,1.19984,0.0169179,0,0,0,0,-0.002284039,38
1,1797,16.3574,1.22775,0.0170056,0,0,0,0,-0.002284039,38
1,1807,16.4985,1.25658,0.016859,0,0,0,0,-0.002284039,38
1,1817,16.6395,1.28449,0.0168879,0,0,0,0,-0.002284039,38
1,1828,16.7947,1.31608,0.0171069,0,0,0,0,-0.002284039,38
1,1838,16.9358,1.34399,0.0177154,0,0,0,0,-0.002284039,38
1,1848,17.0768,1.36975,0.0222423,0,0,0,0,-0.002284039,38
1,1858,17.2179,1.39858,0.0244138,0,0,0,0,-0.002284039,38
1,1868,17.359,1.42588,0.0269718,0,0,0,0,-0.002284039,38
1,1878,17.5001,1.45317,0.0298916,0,0,0,0,-0.002284039,38
1,1888,17.6411,1.48109,0.0329464,0,0,0,0,-0.002284039,38
1,1898,17.7822,1.509,0.0363386,0,0,0,0,-0.002284039,38
1,1909,17.93737,1.53936,0.040933,0,0,0,0,-0.002284039,38
1,1919,18.07844,1.56635,0.0458342,0,0,0,0,-0.002284039,38
1,1929,18.21951,1.59365,0.0514837,0,0,0,0,-0.002284039,38
1,1939,18.36058,1.62094,0.0575197,0,0,0,0,-0.002284039,38
1,1949,18.50165,1.64824,0.0632551,0,0,0,0,-0.002284039,38
1,1959,18.64272,1.67554,0.0694015,0,0,0,0,-0.002284039,38
1,1969,18.78379,1.70253,0.0761061,0,0,0,0,-0.002284039,38
1,1979,18.92486,1.72921,0.0831481,0,0,0,0,-0.002284039,38
1,1989,19.06593,1.75651,0.09046,0,0,0,0,-0.002284039,38
1,1999,19.207,1.78166,0.0972627,0,0,0,0,-0.002284039,38
1,2009,19.34807,1.75681,0.0806699,0,0,0,0,-0.002284039,38
1,2019,19.48914,1.73074,0.0658253,0,0,0,0,-0.002284039,38
1,2029,19.63021,1.70467,0.0520542,0,0,0,0,-0.002284039,38
1,2039,19.77128,1.67891,0.038829,0,0,0,0,-0.002284039,38
1,2049,19.91235,1.65315,0.0262602,0,0,0,0,-0.002284039,38
1,2059,20.05342,1.62646,0.0145686,0,0,0,0,-0.002284039,38
1,2069,20.19449,1.60039,0.00326274,0,0,0,0,-0.002284039,38
1,2079,20.33556,1.57371,-0.00909875,0,0,0,0,-0.002284039,38
1,2089,20.47663,1.54764,-0.0198439,0,0,0,0,-0.002284039,38
1,2099,20.6177,1.52126,-0.0288856,0,0,0,0,-0.002284039,38
1,2109,20.75877,1.49427,-0.0352835,0,0,0,0,-0.002284039,38
1,2119,20.89984,1.46698,-0.0400436,0,0,0,0,-0.002284039,38
1,2129,21.04091,1.43876,-0.0424604,0,0,0,0,-0.002284039,38
1,2139,21.18198,1.41085,-0.0407797,0,0,0,0,-0.002284039,38
1,2149,21.32305,1.3811,-0.0337806,0,0,0,0,-0.002284039,38
1,2159,21.46412,1.35135,-0.0253585,0,0,0,0,-0.002284039,38
1,2169,21.60519,1.3219,-0.0195495,0,0,0,0,-0.002284039,38
1,2180,21.7604,1.29093,-0.0158444,0,0,0,0,-0.002284039,38
1,2190,21.9014,1.26148,-0.0134264,0,0,0,0,-0.002284039,38
1,2200,22.0425,1.23235,-0.0111347,0,0,0,0,-0.002284039,38
1,2210,22.1836,1.20382,-0.00925517,0,0,0,0,-0.002284039,38
1,2220,22.3246,1.17561,-0.00773513,0,0,0,0,-0.002284039,38
1,2230,22.4657,1.1477,-0.00658376,0,0,0,0,-0.002284039,38
1,2240,22.6068,1.11948,-0.00564585,0,0,0,0,-0.002284039,38
1,2250,22.7479,1.09095,-0.00487295,0,0,0,0,-0.002284039,38
1,2260,22.8889,1.06243,-0.00410557,0,0,0,0,-0.002284039,38
1,2270,23.03,1.03421,-0.00343756,0,0,0,0,-0.002284039,38
1,2280,23.1711,1.006,-0.00297628,0,0,0,0,-0.002284039,38
1,2290,23.3121,0.978087,-0.00356699,0,0,0,0,-0.002284039,38
1,2300,23.4532,0.94987,-0.00339524,0,0,0,0,-0.002284039,38
1,2310,23.5943,0.921653,-0.00318238,0,0,0,0,-0.002284039,38
1,2320,23.7353,0.893436,-0.00292843,0,0,0,0,-0.002284039,38
1,2330,23.8764,0.864912,-0.0026665,0,0,0,0,-0.002284039,38
1,2340,24.0175,0.836388,-0.00244506,0,0,0,0,-0.002284039,38
1,2350,24.1586,0.808478,-0.00223834,0,0,0,0,-0.002284039,38
1,2360,24.2996,0.780261,-0.0019758,0,0,0,0,-0.002284039,38
1,2370,24.4407,0.752351,-0.00179914,0,0,0,0,-0.002284039,38
1,2380,24.5818,0.723827,-0.00162922,0,0,0,0,-0.002284039,38
1,2390,24.7228,0.69561,-0.00147587,0,0,0,0,-0.002284039,38
1,2400,24.8639,0.6677,-0.00133859,0,0,0,0,-0.002284039,38
1,2410,25.005,0.639483,-0.00122928,0,0,0,0,-0.002284039,38
1,2420,25.146,0.610959,-0.00112899,0,0,0,0,-0.002284039,38
1,2430,25.2871,0.582436,-0.00104219,0,0,0,0,-0.002284039,38
1,2440,25.4282,0.554525,-0.000969253,0,0,0,0,-0.002284039,38
1,2450,25.5693,0.526615,-0.000913678,0,0,0,0,-0.002284039,38
1,2461,25.7244,0.495331,-0.000865955,0,0,0,0,-0.002284039,38
1,2471,25.8655,0.466807,-0.000828536,0,0,0,0,-0.002284039,38
1,2481,26.0066,0.438897,-0.000796087,0,0,0,0,-0.002284039,38
1,2491,26.1476,0.41068,-0.000774863,0,0,0,0,-0.002284039,38
1,2501,26.2887,0.38277,-0.000754927,0,0,0,0,-0.002284039,38
1,2511,26.4298,0.354246,-0.000743517,0,0,0,0,-0.002284039,38
1,2521,26.5709,0.326336,-0.000735236,0,0,0,0,-0.002284039,38
1,2531,26.7119,0.297812,-0.000725422,0,0,0,0,-0.002284039,38
1,2542,26.8671,0.266835,-0.00072168,0,0,0,0,-0.002284039,38
1,2552,27.0082,0.238311,-0.000726587,0,0,0,0,-0.002284039,38
1,2562,27.1492,0.210401,-0.000728612,0,0,0,0,-0.002284039,38
1,2572,27.2903,0.182797,-0.000740021,0,0,0,0,-0.002284039,38
1,2582,27.4314,0.154274,-0.000756031,0,0,0,0,-0.002284039,38
1,2592,27.5725,0.12575,-0.000772225,0,0,0,0,-0.002284039,38
1,2602,27.7135,0.0975329,-0.000794431,0,0,0,0,-0.002284039,38
1,2612,27.8546,0.0696226,-0.000825531,0,0,0,0,-0.002284039,38
1,2622,27.9957,0.0414056,-0.000865096,0,0,0,0,-0.002284039,38
1,2632,28.1367,0.012882,-0.000919996,0,0,0,0,-0.002284039,38
1,2642,28.2778,-0.0150283,-0.000985202,0,0,0,0,-0.002284039,38
1,2652,28.4189,-0.0432453,-0.00105206,0,0,0,0,-0.002284039,38
1,2662,28.5599,-0.0714623,-0.00112788,0,0,0,0,-0.002284039,38
1,2672,28.701,-0.0996793,-0.00120266,0,0,0,0,-0.002284039,38
1,2682,28.8421,-0.127896,-0.00124627,0,0,0,0,-0.002284039,38
1,2692,28.9832,-0.15642,-0.00128252,0,0,0,0,-0.002284039,38
1,2702,29.1242,-0.184637,-0.00131663,0,0,0,0,-0.002284039,38
1,2712,29.2653,-0.212547,-0.00135,0,0,0,0,-0.002284039,38
1,2722,29.4064,-0.241071,-0.00138901,0,0,0,0,-0.002284039,38
1,2732,29.5474,-0.268674,-0.00141987,0,0,0,0,-0.002284039,38
1,2742,29.6885,-0.297198,-0.00144716,0,0,0,0,-0.002284039,38
1,2752,29.8296,-0.325415,-0.00146415,0,0,0,0,-0.002284039,38
1,2762,29.9706,-0.353632,-0.00147336,0,0,0,0,-0.002284039,38
1,2772,30.1117,-0.381236,-0.0014855,0,0,0,0,-0.002284039,38
1,2782,30.2528,-0.410066,-0.00150237,0,0,0,0,-0.002284039,38
1,2792,30.3939,-0.437976,-0.00152715,0,0,0,0,-0.002284039,38
1,2802,30.5349,-0.466193,-0.00155782,0,0,0,0,-0.002284039,38
1,2812,30.676,-0.494717,-0.00159598,0,0,0,0,-0.002284039,38
1,2823,30.8312,-0.526001,-0.00164499,0,0,0,0,-0.002284039,38
1,2833,30.9722,-0.553911,-0.00169921,0,0,0,0,-0.002284039,38
1,2843,31.1133,-0.582435,-0.00175853,0,0,0,0,-0.002284039,38
1,2853,31.2544,-0.610039,-0.00184453,0,0,0,0,-0.002284039,38
1,2863,31.3954,-0.637949,-0.00192612,0,0,0,0,-0.002284039,38
1,2873,31.5365,-0.666779,-0.00200647,0,0,0,0,-0.002284039,38
1,2883,31.6776,-0.694383,-0.00209542,0,0,0,0,-0.002284039,38
1,2893,31.8187,-0.723213,-0.00218743,0,0,0,0,-0.002284039,38
1,2903,31.9597,-0.751124,-0.00230459,0,0,0,0,-0.002284039,38
1,2913,32.1008,-0.779034,-0.00244997,0,0,0,0,-0.002284039,38
1,2923,32.2419,-0.807558,-0.00264258,0,0,0,0,-0.002284039,38
1,2933,32.3829,-0.835468,-0.00288488,0,0,0,0,-0.002284039,38
1,2943,32.524,-0.863991,-0.00319711,0,0,0,0,-0.002284039,38
1,2953,32.6651,-0.891902,-0.00360564,0,0,0,0,-0.002284039,38
1,2963,32.8061,-0.920425,-0.0041436,0,0,0,0,-0.002284039,38
1,2973,32.9472,-0.948336,-0.00484473,0,0,0,0,-0.002284039,38
1,2983,33.0883,-0.976246,-0.0057992,0,0,0,0,-0.002284039,38
1,2993,33.2294,-1.00416,-0.00711988,0,0,0,0,-0.002284039,38
2,3003,33.3704,-1.00661,-0.00756215,0,0,0,0,-0.002284039,38
2,3013,33.5115,-0.9787,-0.00669601,0,0,0,0,-0.002284039,38
2,3023,33.6526,-0.950483,-0.00577957,0,0,0,0,-0.002284039,38
2,3033,33.7936,-0.922266,-0.00486743,0,0,0,0,-0.002284039,38
2,3043,33.9347,-0.894355,-0.00402337,0,0,0,0,-0.002284039,38
2,3053,34.0758,-0.865832,-0.00330568,0,0,0,0,-0.002284039,38
2,3063,34.2168,-0.838228,-0.00272539,0,0,0,0,-0.002284039,38
2,3073,34.3579,-0.810011,-0.00228742,0,0,0,0,-0.002284039,38
2,3083,34.499,-0.781487,-0.00196721,0,0,0,0,-0.002284039,38
2,3094,34.6542,-0.75051,-0.00171081,0,0,0,0,-0.002284039,38
2,3104,34.7952,-0.722293,-0.00154028,0,0,0,0,-0.002284039,38
2,3114,34.9363,-0.694076,-0.00140042,0,0,0,0,-0.002284039,38
2,3124,35.0774,-0.666166,-0.00128461,0,0,0,0,-0.002284039,38
2,3134,35.2184,-0.637949,-0.00117732,0,0,0,0,-0.002284039,38
2,3144,35.3595,-0.609732,-0.00107599,0,0,0,0,-0.002284039,38
2,3154,35.5006,-0.581208,-0.000975756,0,0,0,0,-0.002284039,38
2,3164,35.6417,-0.552685,-0.000861722,0,0,0,0,-0.002284039,38
2,3175,35.7968,-0.522321,-0.00073266,0,0,0,0,-0.002284039,38
2,3185,35.9379,-0.494104,-0.000614087,0,0,0,0,-0.002284039,38
2,3195,36.079,-0.46558,-0.000491343,0,0,0,0,-0.002284039,38
2,3205,36.22,-0.43767,-0.000376574,0,0,0,0,-0.002284039,38
2,3215,36.3611,-0.409453,-0.000279348,0,0,0,0,-0.002284039,38
2,3225,36.5022,-0.380929,-0.000195617,0,0,0,0,-0.002284039,38
2,3235,36.6433,-0.353325,-0.000133417,0,0,0,0,-0.002284039,38
2,3245,36.7843,-0.324802,-0.000116328,0,0,0,0,-0.002284039,38
2,3255,36.9254,-0.296585,-0.00013481,0,0,0,0,-0.002284039,38
2,3265,37.0665,-0.268674,-5.64708e-05,0,0,0,0,-0.002284039,38
2,3275,37.2075,-0.240457,0.000125774,0,0,0,0,-0.002284039,38
2,3285,37.3486,-0.211934,0.000348848,0,0,0,0,-0.002284039,38
2,3295,37.4897,-0.184024,0.000528823,0,0,0,0,-0.002284039,38
2,3305,37.6307,-0.1555,0.000657394,0,0,0,0,-0.002284039,38
2,3315,37.7718,-0.127896,0.000757994,0,0,0,0,-0.002284039,38
2,3325,37.9129,-0.0993726,0.000807987,0,0,0,0,-0.002284039,38
2,3335,38.054,-0.0708489,0.000800933,0,0,0,0,-0.002284039,38
2,3345,38.195,-0.0429386,0.000770324,0,0,0,0,-0.002284039,38
2,3355,38.3361,-0.0150283,0.000700149,0,0,0,0,-0.002284039,38
2,3365,38.4772,0.0131887,0.000614456,0,0,0,0,-0.002284039,38
2,3375,38.6182,0.0420191,0.000577957,0,0,0,0,-0.002284039,38
2,3385,38.7593,0.0696226,0.000593109,0,0,0,0,-0.002284039,38
2,3395,38.9004,0.0978396,0.000645004,0,0,0,0,-0.002284039,38
2,3405,39.0414,0.126057,0.000713951,0,0,0,0,-0.002284039,38
2,3415,39.1825,0.15458,0.000751799,0,0,0,0,-0.002284039,38
2,3425,39.3236,0.182797,0.000773697,0,0,0,0,-0.002284039,38
2,3435,39.4647,0.210401,0.000810441,0,0,0,0,-0.002284039,38
2,3445,39.6057,0.239231,0.000850987,0,0,0,0,-0.002284039,38
2,3456,39.7609,0.270515,0.000895214,0,0,0,0,-0.002284039,38
2,3466,39.902,0.298426,0.000932633,0,0,0,0,-0.002284039,38
2,3476,40.043,0.326336,0.000956494,0,0,0,0,-0.002284039,38
2,3486,40.1841,0.354553,0.000987226,0,0,0,0,-0.002284039,38
2,3496,40.3252,0.383077,0.00104587,0,0,0,0,-0.002284039,38
2,3506,40.4662,0.411294,0.00114567,0,0,0,0,-0.002284039,38
2,3516,40.6073,0.439817,0.00134172,0,0,0,0,-0.002284039,38
2,3526,40.7484,0.467421,0.00171167,0,0,0,0,-0.002284039,38
2,3536,40.8895,0.495638,0.00236409,0,0,0,0,-0.002284039,38
2,3546,41.0305,0.523548,0.00322164,0,0,0,0,-0.002284039,38
2,3556,41.1716,0.551765,0.00392523,0,0,0,0,-0.002284039,38
2,3566,41.3127,0.579982,0.00429328,0,0,0,0,-0.002284039,38
2,3576,41.4537,0.607892,0.00442577,0,0,0,0,-0.002284039,38
2,3586,41.5948,0.635803,0.00452944,0,0,0,0,-0.002284039,38
2,3596,41.7359,0.66402,0.00454662,0,0,0,0,-0.002284039,38
2,3606,41.8769,0.69285,0.00463065,0,0,0,0,-0.002284039,38
2,3616,42.018,0.721067,0.00484412,0,0,0,0,-0.002284039,38
2,3626,42.1591,0.748977,0.00521033,0,0,0,0,-0.002284039,38
2,3636,42.3002,0.777194,0.00561395,0,0,0,0,-0.002284039,38
2,3646,42.4412,0.805411,0.00605684,0,0,0,0,-0.002284039,38
2,3656,42.5823,0.833628,0.00665737,0,0,0,0,-0.002284039,38
2,3666,42.7234,0.861538,0.00737445,0,0,0,0,-0.002284039,38
2,3676,42.8644,0.889755,0.0081682,0,0,0,0,-0.002284039,38
2,3686,43.0055,0.918279,0.00910611,0,0,0,0,-0.002284039,38
2,3696,43.1466,0.945883,0.0100121,0,0,0,0,-0.002284039,38
2,3706,43.2876,0.974406,0.0107452,0,0,0,0,-0.002284039,38
2,3716,43.4287,1.0017,0.0111972,0,0,0,0,-0.002284039,38
2,3727,43.5839,1.03329,0.0115414,0,0,0,0,-0.002284039,38
2,3737,43.725,1.06182,0.0116966,0,0,0,0,-0.002284039,38
2,3747,43.866,1.08973,0.0117002,0,0,0,0,-0.002284039,38
2,3757,44.0071,1.11764,0.012091,0,0,0,0,-0.002284039,38
2,3767,44.1482,1.14586,0.0123909,0,0,0,0,-0.002284039,38
2,3777,44.2892,1.17438,0.0127547,0,0,0,0,-0.002284039,38
2,3787,44.4303,1.20198,0.0129412,0,0,0,0,-0.002284039,38
2,3797,44.5714,1.2302,0.013016,0,0,0,0,-0.002284039,38
2,3807,44.7125,1.25872,0.0128455,0,0,0,0,-0.002284039,38
2,3818,44.8676,1.29001,0.0126406,0,0,0,0,-0.002284039,38
2,3828,45.0087,1.31822,0.0126406,0,0,0,0,-0.002284039,38
2,3838,45.1498,1.34613,0.0127737,0,0,0,0,-0.002284039,38
2,3848,45.2908,1.37435,0.0129945,0,0,0,0,-0.002284039,38
2,3858,45.4319,1.40318,0.0134202,0,0,0,0,-0.002284039,38
2,3868,45.573,1.4314,0.0140091,0,0,0,0,-0.002284039,38
2,3878,45.7141,1.45962,0.0149305,0,0,0,0,-0.002284039,38
2,3888,45.8551,1.48691,0.0160634,0,0,0,0,-0.002284039,38
2,3898,45.9962,1.51513,0.0174068,0,0,0,0,-0.002284039,38
2,3908,46.1373,1.54212,0.0193348,0,0,0,0,-0.002284039,38
2,3918,46.2783,1.5688,0.0250395,0,0,0,0,-0.002284039,38
2,3928,46.4194,1.5961,0.0313331,0,0,0,0,-0.002284039,38
2,3938,46.5605,1.6237,0.0380561,0,0,0,0,-0.002284039,38
2,3948,46.7015,1.65069,0.0453067,0,0,0,0,-0.002284039,38
2,3958,46.8426,1.67707,0.0529743,0,0,0,0,-0.002284039,38
2,3968,46.9837,1.70375,0.0609978,0,0,0,0,-0.002284039,38
2,3978,47.1248,1.73136,0.0690764,0,0,0,0,-0.002284039,38
2,3988,47.2658,1.75773,0.0775476,0,0,0,0,-0.002284039,38
2,3999,47.421,1.78258,0.0848043,0,0,0,0,-0.002284039,38
2,4009,47.56207,1.75651,0.0693524,0,0,0,0,-0.002284039,38
2,4019,47.70314,1.73044,0.0555629,0,0,0,0,-0.002284039,38
2,4029,47.84421,1.70467,0.0425218,0,0,0,0,-0.002284039,38
2,4039,47.98528,1.67891,0.0300818,0,0,0,0,-0.002284039,38
2,4049,48.12635,1.65253,0.0185373,0,0,0,0,-0.002284039,38
2,4059,48.26742,1.62677,0.00796884,0,0,0,0,-0.002284039,38
2,4069,48.40849,1.59917,-0.00200991,0,0,0,0,-0.002284039,38
2,4079,48.54956,1.57187,-0.0115892,0,0,0,0,-0.002284039,38
2,4090,48.7047,1.54335,-0.0200095,0,0,0,0,-0.002284039,38
2,4100,48.8458,1.51636,-0.0265669,0,0,0,0,-0.002284039,38
2,4110,48.9869,1.48875,-0.0309589,0,0,0,0,-0.002284039,38
2,4120,49.1279,1.46084,-0.0323084,0,0,0,0,-0.002284039,38
2,4130,49.269,1.43201,-0.0293702,0,0,0,0,-0.002284039,38
2,4140,49.4101,1.40288,-0.023322,0,0,0,0,-0.002284039,38
2,4150,49.5512,1.37374,-0.0174516,0,0,0,0,-0.002284039,38
2,4160,49.6922,1.34337,-0.0134221,0,0,0,0,-0.002284039,38
2,4170,49.8333,1.31546,-0.0106047,0,0,0,0,-0.002284039,38
2,4180,49.9744,1.28755,-0.00864728,0,0,0,0,-0.002284039,38
2,4190,50.1154,1.25903,-0.00732353,0,0,0,0,-0.002284039,38
2,4200,50.2565,1.22989,-0.00525449,0,0,0,0,-0.002284039,38
2,4210,50.3976,1.20168,-0.00430248,0,0,0,0,-0.002284039,38
2,4220,50.5386,1.17315,-0.00360564,0,0,0,0,-0.002284039,38
2,4230,50.6797,1.14524,-0.00272355,0,0,0,0,-0.002284039,38
2,4240,50.8208,1.11672,-0.00142557,0,0,0,0,-0.002284039,38
2,4250,50.9619,1.0885,-0.000230398,0,0,0,0,-0.002284039,38
2,4260,51.1029,1.06059,-7.09596e-05,0,0,0,0,-0.002284039,38
2,4270,51.244,1.03207,-0.00048159,0,0,0,0,-0.002284039,38
2,4280,51.3851,1.00416,-0.000871107,0,0,0,0,-0.002284039,38
2,4290,51.5261,0.975633,-0.0012651,0,0,0,0,-0.002284039,38
2,4300,51.6672,0.94803,-0.00164493,0,0,0,0,-0.002284039,38
2,4310,51.8083,0.919506,-0.0019298,0,0,0,0,-0.002284039,38
2,4320,51.9493,0.891289,-0.00201445,0,0,0,0,-0.002284039,38
2,4330,52.0904,0.862765,-0.00189974,0,0,0,0,-0.002284039,38
2,4340,52.2315,0.835775,-0.00173105,0,0,0,0,-0.002284039,38
2,4350,52.3726,0.807251,-0.0015231,0,0,0,0,-0.002284039,38
2,4361,52.5277,0.775661,-0.00128565,0,0,0,0,-0.002284039,38
2,4371,52.6688,0.74775,-0.00109347,0,0,0,0,-0.002284039,38
2,4381,52.8099,0.719533,-0.000926437,0,0,0,0,-0.002284039,38
2,4391,52.9509,0.690703,-0.000795658,0,0,0,0,-0.002284039,38
2,4401,53.092,0.662793,-0.000686041,0,0,0,0,-0.002284039,38
2,4411,53.2331,0.635189,-0.000601144,0,0,0,0,-0.002284039,38
2,4421,53.3742,0.606052,-0.000538576,0,0,0,0,-0.002284039,38
2,4431,53.5152,0.578142,-0.000494779,0,0,0,0,-0.002284039,38
2,4441,53.6563,0.550231,-0.000469015,0,0,0,0,-0.002284039,38
2,4451,53.7974,0.522014,-0.000452576,0,0,0,0,-0.002284039,38
2,4461,53.9384,0.493798,-0.000446012,0,0,0,0,-0.002284039,38
2,4471,54.0795,0.465581,-0.000444295,0,0,0,0,-0.002284039,38
2,4481,54.2206,0.437364,-0.000450184,0,0,0,0,-0.002284039,38
2,4491,54.3616,0.40884,-0.000457054,0,0,0,0,-0.002284039,38
2,4501,54.5027,0.380623,-0.000471469,0,0,0,0,-0.002284039,38
2,4511,54.6438,0.352099,-0.000485271,0,0,0,0,-0.002284039,38
2,4521,54.7849,0.324189,-0.000501587,0,0,0,0,-0.002284039,38
2,4531,54.9259,0.295972,-0.00051907,0,0,0,0,-0.002284039,38
2,4541,55.067,0.268062,-0.00053465,0,0,0,0,-0.002284039,38
2,4551,55.2081,0.239845,-0.00054833,0,0,0,0,-0.002284039,38
2,4561,55.3491,0.211628,-0.00056434,0,0,0,0,-0.002284039,38
2,4571,55.4902,0.183104,-0.000578203,0,0,0,0,-0.002284039,38
2,4581,55.6313,0.154887,-0.00059685,0,0,0,0,-0.002284039,38
2,4591,55.7723,0.127283,-0.000616112,0,0,0,0,-0.002284039,38
2,4601,55.9134,0.098453,-0.000639789,0,0,0,0,-0.002284039,38
2,4611,56.0545,0.0705428,-0.000655309,0,0,0,0,-0.002284039,38
2,4621,56.1956,0.0420191,-0.00068782,0,0,0,0,-0.002284039,38
2,4632,56.3507,0.0110417,-0.000725176,0,0,0,0,-0.002284039,38
2,4642,56.4918,-0.0168686,-0.000768177,0,0,0,0,-0.002284039,38
2,4652,56.6329,-0.0447788,-0.000820562,0,0,0,0,-0.002284039,38
2,4662,56.7739,-0.0736092,-0.000887117,0,0,0,0,-0.002284039,38
2,4672,56.915,-0.101213,-0.000957108,0,0,0,0,-0.002284039,38
2,4682,57.0561,-0.130043,-0.00104078,0,0,0,0,-0.002284039,38
2,4692,57.1972,-0.157953,-0.00110592,0,0,0,0,-0.002284039,38
2,4702,57.3382,-0.185557,-0.00114935,0,0,0,0,-0.002284039,38
2,4712,57.4793,-0.214387,-0.00119082,0,0,0,0,-0.002284039,38
2,4723,57.6345,-0.245058,-0.00124866,0,0,0,0,-0.002284039,38
2,4733,57.7755,-0.273582,-0.00129847,0,0,0,0,-0.002284039,38
2,4743,57.9166,-0.301492,-0.00135681,0,0,0,0,-0.002284039,38
2,4753,58.0577,-0.329709,-0.00140919,0,0,0,0,-0.002284039,38
2,4763,58.1987,-0.357619,-0.00145422,0,0,0,0,-0.002284039,38
2,4773,58.3398,-0.386143,-0.00148035,0,0,0,0,-0.002284039,38
2,4783,58.4809,-0.414053,-0.00149274,0,0,0,0,-0.002284039,38
2,4793,58.622,-0.442577,-0.00151022,0,0,0,0,-0.002284039,38
2,4803,58.763,-0.471101,-0.00153415,0,0,0,0,-0.002284039,38
2,4813,58.9041,-0.498704,-0.00156819,0,0,0,0,-0.002284039,38
2,4823,59.0452,-0.527228,-0.00160481,0,0,0,0,-0.002284039,38
2,4833,59.1862,-0.555445,-0.00165456,0,0,0,0,-0.002284039,38
2,4843,59.3273,-0.583662,-0.00170504,0,0,0,0,-0.002284039,38
2,4853,59.4684,-0.612186,-0.00175859,0,0,0,0,-0.002284039,38
2,4863,59.6094,-0.640096,-0.00182736,0,0,0,0,-0.002284039,38
2,4873,59.7505,-0.66862,-0.00190649,0,0,0,0,-0.002284039,38
2,4883,59.8916,-0.69653,-0.0019985,0,0,0,0,-0.002284039,38
2,4893,60.0327,-0.72444,-0.00209112,0,0,0,0,-0.002284039,38
2,4903,60.1737,-0.753271,-0.00218682,0,0,0,0,-0.002284039,38
2,4913,60.3148,-0.780567,-0.00229662,0,0,0,0,-0.002284039,38
2,4923,60.4559,-0.809091,-0.00243095,0,0,0,0,-0.002284039,38
2,4933,60.5969,-0.837921,-0.00260332,0,0,0,0,-0.002284039,38
2,4943,60.738,-0.865525,-0.00282599,0,0,0,0,-0.002284039,38
2,4953,60.8791,-0.893742,-0.00311552,0,0,0,0,-0.002284039,38
2,4963,61.0201,-0.921959,-0.00348909,0,0,0,0,-0.002284039,38
2,4973,61.1612,-0.949563,-0.00398902,0,0,0,0,-0.002284039,38
2,4983,61.3023,-0.978393,-0.0046466,0,0,0,0,-0.002284039,38
2,4994,61.4575,-1.00876,-0.00566487,0,0,0,0,-0.002284039,38
3,5004,61.5985,-1.00232,-0.00557163,0,0,0,0,-0.002284039,38
3,5014,61.7396,-0.974099,-0.00480731,0,0,0,0,-0.002284039,38
3,5024,61.8807,-0.945882,-0.00406447,0,0,0,0,-0.002284039,38
3,5034,62.0217,-0.917972,-0.00339769,0,0,0,0,-0.002284039,38
3,5044,62.1628,-0.889755,-0.00284562,0,0,0,0,-0.002284039,38
3,5054,62.3039,-0.861538,-0.00241255,0,0,0,0,-0.002284039,38
3,5064,62.445,-0.833628,-0.00209296,0,0,0,0,-0.002284039,38
3,5074,62.586,-0.805104,-0.00185005,0,0,0,0,-0.002284039,38
3,5084,62.7271,-0.776887,-0.00166664,0,0,0,0,-0.002284039,38
3,5094,62.8682,-0.748977,-0.00152004,0,0,0,0,-0.002284039,38
3,5104,63.0092,-0.72076,-0.00139281,0,0,0,0,-0.002284039,38
3,5114,63.1503,-0.691929,-0.00128191,0,0,0,0,-0.002284039,38
3,5124,63.2914,-0.664326,-0.00117192,0,0,0,0,-0.002284039,38
3,5134,63.4324,-0.635802,-0.00106488,0,0,0,0,-0.002284039,38
3,5144,63.5735,-0.607892,-0.000947845,0,0,0,0,-0.002284039,38
3,5154,63.7146,-0.580288,-0.000824243,0,0,0,0,-0.002284039,38
3,5164,63.8557,-0.551458,-0.000705793,0,0,0,0,-0.002284039,38
3,5174,63.9967,-0.522934,-0.00058538,0,0,0,0,-0.002284039,38
3,5184,64.1378,-0.49533,-0.00047607,0,0,0,0,-0.002284039,38
3,5194,64.2789,-0.4665,-0.000377678,0,0,0,0,-0.002284039,38
3,5204,64.4199,-0.438283,-0.000314987,0,0,0,0,-0.002284039,38
3,5214,64.561,-0.410679,-0.000300388,0,0,0,0,-0.002284039,38
3,5224,64.7021,-0.382156,-0.000312595,0,0,0,0,-0.002284039,38
3,5234,64.8431,-0.354552,-0.00027487,0,0,0,0,-0.002284039,38
3,5244,64.9842,-0.326029,-0.000133601,0,0,0,0,-0.002284039,38
3,5254,65.1253,-0.297505,5.92311e-05,0,0,0,0,-0.002284039,38
3,5265,65.2805,-0.266528,0.000276036,0,0,0,0,-0.002284039,38
3,5275,65.4215,-0.238617,0.000401049,0,0,0,0,-0.002284039,38
3,5285,65.5626,-0.210094,0.000468831,0,0,0,0,-0.002284039,38
3,5295,65.7037,-0.181877,0.00053324,0,0,0,0,-0.002284039,38
3,5305,65.8447,-0.15366,0.000579246,0,0,0,0,-0.002284039,38
3,5315,65.9858,-0.125136,0.000596789,0,0,0,0,-0.002284039,38
3,5325,66.1269,-0.0972256,0.000617461,0,0,0,0,-0.002284039,38
3,5335,66.268,-0.0693153,0.000612493,0,0,0,0,-0.002284039,38
3,5345,66.409,-0.0410984,0.000567529,0,0,0,0,-0.002284039,38
3,5356,66.5642,-0.00981431,0.000511709,0,0,0,0,-0.002284039,38
3,5366,66.7053,0.0177893,0.000507722,0,0,0,0,-0.002284039,38
3,5376,66.8463,0.046313,0.000534037,0,0,0,0,-0.002284039,38
3,5386,66.9874,0.0745299,0.000583785,0,0,0,0,-0.002284039,38
3,5396,67.1285,0.102747,0.000629361,0,0,0,0,-0.002284039,38
3,5406,67.2695,0.130657,0.000664326,0,0,0,0,-0.002284039,38
3,5416,67.4106,0.159181,0.000698677,0,0,0,0,-0.002284039,38
3,5426,67.5517,0.186784,0.000747505,0,0,0,0,-0.002284039,38
3,5436,67.6928,0.215615,0.000786825,0,0,0,0,-0.002284039,38
3,5446,67.8338,0.244139,0.000810318,0,0,0,0,-0.002284039,38
3,5456,67.9749,0.271742,0.000841418,0,0,0,0,-0.002284039,38
3,5466,68.116,0.299959,0.000870862,0,0,0,0,-0.002284039,38
3,5476,68.257,0.328483,0.00090006,0,0,0,0,-0.002284039,38
3,5486,68.3981,0.35578,0.000949318,0,0,0,0,-0.002284039,38
3,5496,68.5392,0.385223,0.00103648,0,0,0,0,-0.002284039,38
3,5506,68.6802,0.413134,0.00118291,0,0,0,0,-0.002284039,38
3,5516,68.8213,0.441351,0.00145483,0,0,0,0,-0.002284039,38
3,5526,68.9624,0.469261,0.00195679,0,0,0,0,-0.002284039,38
3,5536,69.1035,0.496865,0.00273214,0,0,0,0,-0.002284039,38
3,5546,69.2445,0.525082,0.00356638,0,0,0,0,-0.002284039,38
3,5556,69.3856,0.553912,0.00416569,0,0,0,0,-0.002284039,38
3,5566,69.5267,0.581822,0.00442332,0,0,0,0,-0.002284039,38
3,5576,69.6677,0.609733,0.00451778,0,0,0,0,-0.002284039,38
3,5586,69.8088,0.637949,0.00451778,0,0,0,0,-0.002284039,38
3,5596,69.9499,0.666473,0.00442761,0,0,0,0,-0.002284039,38
3,5606,70.0909,0.694997,0.00447546,0,0,0,0,-0.002284039,38
3,5616,70.232,0.7226,0.0045779,0,0,0,0,-0.002284039,38
3,5627,70.3872,0.753578,0.00488031,0,0,0,0,-0.002284039,38
3,5637,70.5283,0.781795,0.00531154,0,0,0,0,-0.002284039,38
3,5647,70.6693,0.810012,0.00570719,0,0,0,0,-0.002284039,38
3,5657,70.8104,0.838229,0.00631447,0,0,0,0,-0.002284039,38
3,5667,70.9515,0.866446,0.00698432,0,0,0,0,-0.002284039,38
3,5677,71.0925,0.894049,0.00776397,0,0,0,0,-0.002284039,38
3,5687,71.2336,0.922573,0.00860741,0,0,0,0,-0.002284039,38
3,5697,71.3747,0.950177,0.00951219,0,0,0,0,-0.002284039,38
3,5707,71.5158,0.979007,0.0101692,0,0,0,0,-0.002284039,38
3,5717,71.6568,1.00692,0.0106979,0,0,0,0,-0.002284039,38
3,5727,71.7979,1.03513,0.0108807,0,0,0,0,-0.002284039,38
3,5737,71.939,1.06335,0.0109513,0,0,0,0,-0.002284039,38
3,5747,72.08,1.09218,0.0111224,0,0,0,0,-0.002284039,38
3,5757,72.2211,1.11979,0.0114451,0,0,0,0,-0.002284039,38
3,5767,72.3622,1.14862,0.0118198,0,0,0,0,-0.002284039,38
3,5777,72.5032,1.17622,0.0122075,0,0,0,0,-0.002284039,38
3,5787,72.6443,1.20382,0.0125486,0,0,0,0,-0.002284039,38
3,5797,72.7854,1.23204,0.0127897,0,0,0,0,-0.002284039,38
3,5807,72.9265,1.26026,0.0126326,0,0,0,0,-0.002284039,38
3,5817,73.0675,1.28878,0.012402,0,0,0,0,-0.002284039,38
3,5827,73.2086,1.31761,0.0121983,0,0,0,0,-0.002284039,38
3,5837,73.3497,1.34521,0.0122511,0,0,0,0,-0.002284039,38
3,5847,73.4907,1.37343,0.0124216,0,0,0,0,-0.002284039,38
3,5857,73.6318,1.40165,0.0130307,0,0,0,0,-0.002284039,38
3,5867,73.7729,1.42956,0.0136809,0,0,0,0,-0.002284039,38
3,5877,73.9139,1.45747,0.0144342,0,0,0,0,-0.002284039,38
3,5887,74.055,1.4863,0.01545,0,0,0,0,-0.002284039,38
3,5898,74.2102,1.51666,0.0167143,0,0,0,0,-0.002284039,38
3,5908,74.3513,1.54488,0.0183625,0,0,0,0,-0.002284039,38
3,5918,74.4923,1.57095,0.023322,0,0,0,0,-0.002284039,38
3,5928,74.6334,1.59855,0.0298241,0,0,0,0,-0.002284039,38
3,5938,74.7745,1.62524,0.0370011,0,0,0,0,-0.002284039,38
3,5948,74.9155,1.65253,0.0442087,0,0,0,0,-0.002284039,38
3,5958,75.0566,1.67922,0.0519867,0,0,0,0,-0.002284039,38
3,5968,75.1977,1.70621,0.0600163,0,0,0,0,-0.002284039,38
3,5978,75.3388,1.73258,0.0683526,0,0,0,0,-0.002284039,38
3,5989,75.49393,1.76203,0.0776212,0,0,0,0,-0.002284039,38
3,5999,75.635,1.78104,0.0823139,0,0,0,0,-0.002284039,38
3,6009,75.77607,1.75497,0.0671196,0,0,0,0,-0.002284039,38
3,6019,75.91714,1.7289,0.0533546,0,0,0,0,-0.002284039,38
3,6029,76.05821,1.70345,0.0407367,0,0,0,0,-0.002284039,38
3,6039,76.19928,1.67676,0.0287875,0,0,0,0,-0.002284039,38
3,6049,76.34035,1.65069,0.0173841,0,0,0,0,-0.002284039,38
3,6059,76.48142,1.62524,0.00703155,0,0,0,0,-0.002284039,38
3,6069,76.62249,1.59733,-0.00292536,0,0,0,0,-0.002284039,38
3,6079,76.76356,1.57034,-0.0121499,0,0,0,0,-0.002284039,38
3,6089,76.90463,1.54457,-0.0196169,0,0,0,0,-0.002284039,38
3,6099,77.0457,1.51728,-0.0260823,0,0,0,0,-0.002284039,38
3,6109,77.18677,1.48967,-0.0304621,0,0,0,0,-0.002284039,38
3,6119,77.32784,1.46207,-0.0319097,0,0,0,0,-0.002284039,38
3,6129,77.46891,1.43293,-0.0290696,0,0,0,0,-0.002284039,38
3,6139,77.60998,1.4038,-0.023095,0,0,0,0,-0.002284039,38
3,6149,77.75105,1.37435,-0.0173657,0,0,0,0,-0.002284039,38
3,6159,77.89212,1.34521,-0.0132583,0,0,0,0,-0.002284039,38
3,6169,78.03319,1.31608,-0.0104415,0,0,0,0,-0.002284039,38
3,6179,78.17426,1.28847,-0.00848043,0,0,0,0,-0.002284039,38
3,6189,78.31533,1.25995,-0.0063752,0,0,0,0,-0.002284039,38
3,6199,78.4564,1.23143,-0.00456195,0,0,0,0,-0.002284039,38
3,6209,78.59747,1.2029,-0.00368354,0,0,0,0,-0.002284039,38
3,6219,78.73854,1.17499,-0.00273582,0,0,0,0,-0.002284039,38
3,6229,78.87961,1.14616,-0.00107059,0,0,0,0,-0.002284039,38
3,6239,79.02068,1.11764,0.00146225,0,0,0,0,-0.002284039,38
3,6249,79.16175,1.08911,0.00208315,0,0,0,0,-0.002284039,38
3,6260,79.3169,1.05844,0.00114224,0,0,0,0,-0.002284039,38
3,6270,79.458,1.03084,0.00013078,0,0,0,0,-0.002284039,38
3,6280,79.5991,1.00201,-0.000799767,0,0,0,0,-0.002284039,38
3,6290,79.7401,0.9741,-0.00165468,0,0,0,0,-0.002284039,38
3,6300,79.8812,0.946189,-0.00222239,0,0,0,0,-0.002284039,38
3,6310,80.0223,0.917972,-0.00254382,0,0,0,0,-0.002284039,38
3,6320,80.1633,0.889449,-0.00259474,0,0,0,0,-0.002284039,38
3,6330,80.3044,0.861845,-0.002442,0,0,0,0,-0.002284039,38
3,6340,80.4455,0.833015,-0.0021678,0,0,0,0,-0.002284039,38
3,6350,80.5866,0.804798,-0.00186048,0,0,0,0,-0.002284039,38
3,6360,80.7276,0.776581,-0.00150777,0,0,0,0,-0.002284039,38
3,6370,80.8687,0.748364,-0.00125995,0,0,0,0,-0.002284039,38
3,6380,81.0098,0.720147,-0.00106384,0,0,0,0,-0.002284039,38
3,6390,81.1508,0.691623,-0.000900367,0,0,0,0,-0.002284039,38
3,6400,81.2919,0.66402,-0.000772593,0,0,0,0,-0.002284039,38
3,6410,81.433,0.635803,-0.000673159,0,0,0,0,-0.002284039,38
3,6420,81.574,0.607586,-0.000599059,0,0,0,0,-0.002284039,38
3,6430,81.7151,0.579369,-0.000546305,0,0,0,0,-0.002284039,38
3,6440,81.8562,0.550845,-0.000515635,0,0,0,0,-0.002284039,38
3,6450,81.9973,0.522628,-0.000485209,0,0,0,0,-0.002284039,38
3,6460,82.1383,0.494104,-0.000476438,0,0,0,0,-0.002284039,38
3,6470,82.2794,0.466501,-0.000476683,0,0,0,0,-0.002284039,38
3,6480,82.4205,0.43859,-0.000478094,0,0,0,0,-0.002284039,38
3,6490,82.5615,0.410067,-0.000487111,0,0,0,0,-0.002284039,38
3,6500,82.7026,0.38185,-0.000496864,0,0,0,0,-0.002284039,38
3,6510,82.8437,0.354246,-0.000510666,0,0,0,0,-0.002284039,38
3,6520,82.9847,0.325416,-0.000523486,0,0,0,0,-0.002284039,38
3,6531,83.1399,0.294132,-0.000539067,0,0,0,0,-0.002284039,38
3,6541,83.281,0.266528,-0.000559064,0,0,0,0,-0.002284039,38
3,6551,83.4221,0.238004,-0.000575136,0,0,0,0,-0.002284039,38
3,6561,83.5631,0.210094,-0.000591882,0,0,0,0,-0.002284039,38
3,6571,83.7042,0.180957,-0.000609303,0,0,0,0,-0.002284039,38
3,6581,83.8453,0.153353,-0.000629423,0,0,0,0,-0.002284039,38
3,6591,83.9863,0.12483,-0.000649236,0,0,0,0,-0.002284039,38
3,6601,84.1274,0.0972262,-0.000667638,0,0,0,0,-0.002284039,38
3,6611,84.2685,0.0687025,-0.000694628,0,0,0,0,-0.002284039,38
3,6622,84.4237,0.0374185,-0.000727446,0,0,0,0,-0.002284039,38
3,6632,84.5647,0.00950819,-0.000762165,0,0,0,0,-0.002284039,38
3,6642,84.7058,-0.0180954,-0.000813876,0,0,0,0,-0.002284039,38
3,6652,84.8469,-0.0469258,-0.000868102,0,0,0,0,-0.002284039,38
3,6662,84.9879,-0.0748361,-0.000929995,0,0,0,0,-0.002284039,38
3,6672,85.129,-0.103053,-0.00100091,0,0,0,0,-0.002284039,38
3,6682,85.2701,-0.131883,-0.00107961,0,0,0,0,-0.002284039,38
3,6692,85.4112,-0.159794,-0.00115254,0,0,0,0,-0.002284039,38
3,6702,85.5522,-0.188011,-0.00120468,0,0,0,0,-0.002284039,38
3,6712,85.6933,-0.215921,-0.00124707,0,0,0,0,-0.002284039,38
3,6722,85.8344,-0.244445,-0.00129817,0,0,0,0,-0.002284039,38
3,6732,85.9754,-0.272355,-0.00135123,0,0,0,0,-0.002284039,38
3,6742,86.1165,-0.300572,-0.00141146,0,0,0,0,-0.002284039,38
3,6752,86.2576,-0.328789,-0.00146041,0,0,0,0,-0.002284039,38
3,6762,86.3986,-0.356699,-0.00150219,0,0,0,0,-0.002284039,38
3,6772,86.5397,-0.38553,-0.00153415,0,0,0,0,-0.002284039,38
3,6782,86.6808,-0.413133,-0.0015577,0,0,0,0,-0.002284039,38
3,6792,86.8219,-0.44227,-0.00157708,0,0,0,0,-0.002284039,38
3,6802,86.9629,-0.469874,-0.00160107,0,0,0,0,-0.002284039,38
3,6812,87.104,-0.497784,-0.0016356,0,0,0,0,-0.002284039,38
3,6822,87.2451,-0.526614,-0.00166989,0,0,0,0,-0.002284039,38
3,6832,87.3861,-0.554525,-0.00171516,0,0,0,0,-0.002284039,38
3,6842,87.5272,-0.582435,-0.00176841,0,0,0,0,-0.002284039,38
3,6852,87.6683,-0.610959,-0.00182245,0,0,0,0,-0.002284039,38
3,6862,87.8093,-0.638869,-0.00188747,0,0,0,0,-0.002284039,38
3,6872,87.9504,-0.667393,-0.00196231,0,0,0,0,-0.002284039,38
3,6882,88.0915,-0.69561,-0.00206107,0,0,0,0,-0.002284039,38
3,6893,88.2467,-0.726587,-0.00216044,0,0,0,0,-0.002284039,38
3,6903,88.3877,-0.754804,-0.00225,0,0,0,0,-0.002284039,38
3,6913,88.5288,-0.783021,-0.00234998,0,0,0,0,-0.002284039,38
3,6923,88.6699,-0.811238,-0.00246469,0,0,0,0,-0.002284039,38
3,6933,88.8109,-0.839455,-0.00261007,0,0,0,0,-0.002284039,38
3,6943,88.952,-0.867672,-0.00280698,0,0,0,0,-0.002284039,38
3,6953,89.0931,-0.895582,-0.00305786,0,0,0,0,-0.002284039,38
3,6963,89.2341,-0.924106,-0.00339278,0,0,0,0,-0.002284039,38
3,6973,89.3752,-0.952016,-0.00382647,0,0,0,0,-0.002284039,38
3,6983,89.5163,-0.979926,-0.00440737,0,0,0,0,-0.002284039,38
3,6993,89.6574,-1.00814,-0.0051864,0,0,0,0,-0.002284039,38
4,7003,89.7492,-1.00324,-0.00527044,0,0,0,0,-0.002284039,38
4,7013,89.8199,-0.989434,-0.00488031,0,0,0,0,-0.002284039,38
4,7023,89.8906,-0.975326,-0.00451349,0,0,0,0,-0.002284039,38
4,7033,89.9613,-0.961217,-0.00413317,0,0,0,0,-0.002284039,38
4,7044,90.0391,-0.945882,-0.00375163,0,0,0,0,-0.002284039,38
4,7054,90.1098,-0.931467,-0.0034253,0,0,0,0,-0.002284039,38
4,7064,90.1805,-0.917665,-0.00313945,0,0,0,0,-0.002284039,38
4,7074,90.2512,-0.903557,-0.00287813,0,0,0,0,-0.002284039,38
4,7085,90.329,-0.887915,-0.00263154,0,0,0,0,-0.002284039,38
4,7095,90.3997,-0.873806,-0.00244077,0,0,0,0,-0.002284039,38
4,7105,90.4704,-0.859698,-0.00227269,0,0,0,0,-0.002284039,38
4,7115,90.5411,-0.845896,-0.00213038,0,0,0,0,-0.002284039,38
4,7125,90.6118,-0.831481,-0.00200402,0,0,0,0,-0.002284039,38
4,7136,90.6896,-0.815532,-0.00189238,0,0,0,0,-0.002284039,38
4,7146,90.7603,-0.801423,-0.00179607,0,0,0,0,-0.002284039,38
4,7156,90.831,-0.787622,-0.00171387,0,0,0,0,-0.002284039,38
4,7166,90.9017,-0.773513,-0.00163352,0,0,0,0,-0.002284039,38
4,7177,90.97953,-0.757564,-0.00156543,0,0,0,0,-0.002284039,38
4,7187,91.05024,-0.743763,-0.00149366,0,0,0,0,-0.002284039,38
4,7197,91.12095,-0.729347,-0.00143907,0,0,0,0,-0.002284039,38
4,7207,91.19166,-0.715546,-0.00138104,0,0,0,0,-0.002284039,38
4,7217,91.26237,-0.701744,-0.00132301,0,0,0,0,-0.002284039,38
4,7227,91.33308,-0.687329,-0.00126633,0,0,0,0,-0.002284039,38
4,7237,91.40379,-0.67322,-0.00121032,0,0,0,0,-0.002284039,38
4,7247,91.4745,-0.658498,-0.00115174,0,0,0,0,-0.002284039,38
4,7257,91.54521,-0.645003,-0.00109194,0,0,0,0,-0.002284039,38
4,7267,91.61592,-0.630895,-0.00103176,0,0,0,0,-0.002284039,38
4,7277,91.68663,-0.616479,-0.000972198,0,0,0,0,-0.002284039,38
4,7287,91.75734,-0.602371,-0.000907053,0,0,0,0,-0.002284039,38
4,7297,91.82805,-0.588569,-0.000845467,0,0,0,0,-0.002284039,38
4,7307,91.89876,-0.574461,-0.000779525,0,0,0,0,-0.002284039,38
4,7317,91.96947,-0.559739,-0.000726219,0,0,0,0,-0.002284039,38
4,7327,92.04018,-0.546244,-0.000661872,0,0,0,0,-0.002284039,38
4,7337,92.11089,-0.532135,-0.000609548,0,0,0,0,-0.002284039,38
4,7347,92.1816,-0.518027,-0.000552562,0,0,0,0,-0.002284039,38
4,7357,92.25231,-0.503918,-0.000504041,0,0,0,0,-0.002284039,38
4,7367,92.32302,-0.489503,-0.000462084,0,0,0,0,-0.002284039,38
4,7377,92.39373,-0.475395,-0.000427303,0,0,0,0,-0.002284039,38
4,7387,92.46444,-0.461593,-0.000403073,0,0,0,0,-0.002284039,38
4,7397,92.53515,-0.447484,-0.000394731,0,0,0,0,-0.002284039,38
4,7407,92.60586,-0.433376,-0.00039467,0,0,0,0,-0.002284039,38
4,7417,92.67657,-0.418654,-0.000402828,0,0,0,0,-0.002284039,38
4,7427,92.74728,-0.404852,-0.000405895,0,0,0,0,-0.002284039,38
4,7437,92.81799,-0.390437,-0.000393504,0,0,0,0,-0.002284039,38
4,7447,92.8887,-0.376328,-0.000356025,0,0,0,0,-0.002284039,38
4,7458,92.9665,-0.360993,-0.000290144,0,0,0,0,-0.002284039,38
4,7468,93.0372,-0.345964,-0.000207088,0,0,0,0,-0.002284039,38
4,7478,93.1079,-0.332469,-0.000122597,0,0,0,0,-0.002284039,38
4,7488,93.1786,-0.318361,-2.09848e-05,0,0,0,0,-0.002284039,38
4,7499,93.2564,-0.302719,8.32524e-05,0,0,0,0,-0.002284039,38
4,7510,93.3342,-0.287384,0.000180779,0,0,0,0,-0.002284039,38
4,7520,93.4049,-0.272968,0.000243648,0,0,0,0,-0.002284039,38
4,7530,93.4756,-0.258553,0.000287629,0,0,0,0,-0.002284039,38
4,7540,93.5463,-0.245058,0.000317318,0,0,0,0,-0.002284039,38
4,7551,93.6241,-0.229723,0.000351976,0,0,0,0,-0.002284039,38
4,7561,93.6948,-0.215308,0.000386511,0,0,0,0,-0.002284039,38
4,7571,93.7655,-0.200892,0.000420188,0,0,0,0,-0.002284039,38
4,7581,93.8362,-0.186784,0.000451104,0,0,0,0,-0.002284039,38
4,7592,93.914,-0.171449,0.000482081,0,0,0,0,-0.002284039,38
4,7602,93.9847,-0.15734,0.000501833,0,0,0,0,-0.002284039,38
4,7612,94.0554,-0.143232,0.000508642,0,0,0,0,-0.002284039,38
4,7622,94.1261,-0.129736,0.000520481,0,0,0,0,-0.002284039,38
4,7632,94.1968,-0.115015,0.000533362,0,0,0,0,-0.002284039,38
4,7642,94.2675,-0.100906,0.00053735,0,0,0,0,-0.002284039,38
4,7652,94.3383,-0.0864909,0.000530173,0,0,0,0,-0.002284039,38
4,7662,94.409,-0.0723824,0.000513304,0,0,0,0,-0.002284039,38
4,7672,94.4797,-0.0582739,0.000490117,0,0,0,0,-0.002284039,38
4,7682,94.5504,-0.0441654,0.000469506,0,0,0,0,-0.002284039,38
4,7692,94.6211,-0.0303636,0.000450122,0,0,0,0,-0.002284039,38
4,7702,94.6918,-0.0162551,0.000445338,0,0,0,0,-0.002284039,38
4,7712,94.7625,-0.00183994,0.000450122,0,0,0,0,-0.002284039,38
4,7722,94.8332,0.012882,0.00046055,0,0,0,0,-0.002284039,38
4,7732,94.9039,0.0266837,0.000476622,0,0,0,0,-0.002284039,38
4,7742,94.9746,0.0401788,0.00049803,0,0,0,0,-0.002284039,38
4,7752,95.0454,0.0549007,0.000520113,0,0,0,0,-0.002284039,38
4,7762,95.1161,0.0683958,0.000549495,0,0,0,0,-0.002284039,38
4,7772,95.1868,0.0831177,0.000575381,0,0,0,0,-0.002284039,38
4,7782,95.2575,0.0975329,0.000601574,0,0,0,0,-0.002284039,38
4,7792,95.3282,0.111028,0.000627092,0,0,0,0,-0.002284039,38
4,7802,95.3989,0.125443,0.000645801,0,0,0,0,-0.002284039,38
4,7812,95.4696,0.139245,0.000664755,0,0,0,0,-0.002284039,38
4,7822,95.5403,0.15366,0.000689353,0,0,0,0,-0.002284039,38
4,7832,95.611,0.168075,0.000708308,0,0,0,0,-0.002284039,38
4,7842,95.6817,0.18157,0.000731679,0,0,0,0,-0.002284039,38
4,7852,95.7525,0.195679,0.000755847,0,0,0,0,-0.002284039,38
4,7862,95.8232,0.209787,0.000772103,0,0,0,0,-0.002284039,38
4,7872,95.8939,0.224203,0.000779586,0,0,0,0,-0.002284039,38
4,7883,95.9717,0.239845,0.000793327,0,0,0,0,-0.002284039,38
4,7893,96.0424,0.253953,0.000807619,0,0,0,0,-0.002284039,38
4,7903,96.1131,0.268368,0.00082185,0,0,0,0,-0.002284039,38
4,7913,96.1838,0.281863,0.000841234,0,0,0,0,-0.002284039,38
4,7924,96.2616,0.297812,0.000854423,0,0,0,0,-0.002284039,38
4,7934,96.3323,0.311921,0.000874604,0,0,0,0,-0.002284039,38
4,7944,96.403,0.326029,0.00089454,0,0,0,0,-0.002284039,38
4,7954,96.4737,0.340138,0.000921285,0,0,0,0,-0.002284039,38
4,7965,96.5515,0.35578,0.000961156,0,0,0,0,-0.002284039,38
4,7975,96.6222,0.370195,0.00100839,0,0,0,0,-0.002284039,38
4,7985,96.6929,0.383997,0.00106599,0,0,0,0,-0.002284039,38
4,7995,96.7636,0.398105,0.00114015,0,0,0,0,-0.002284039,38
4,7996,96.7707,0.399332,0.00114947,0,0,0,0,-0.002284039,38