File: CV02.11.25/2ndsecondelectrode-1.2CV_650_FLiNaK_Ni_02_11_25_200mVperS_sh15.csv
Segment,Point,Elapsed Time (s),Potential (V),Current (A),Frequency (Hz),|Z| (ohms),Zre (ohms),Zim (ohms),Phase of Z (deg),ActionId
0,0,0.00551,-0.000919825,-0.000110414,0,0,0,0,-0.002284039,38
0,10,0.06061,-0.012268,-0.000228803,0,0,0,0,-0.002284039,38
0,20,0.11571,-0.0230027,-0.000275361,0,0,0,0,-0.002284039,38
0,30,0.17081,-0.0340441,-0.000304191,0,0,0,0,-0.002284039,38
0,40,0.22591,-0.0447788,-0.000319956,0,0,0,0,-0.002284039,38
0,50,0.28101,-0.056127,-0.000333819,0,0,0,0,-0.002284039,38
0,60,0.33611,-0.0671684,-0.000344063,0,0,0,0,-0.002284039,38
0,70,0.39121,-0.0782098,-0.000354859,0,0,0,0,-0.002284039,38
0,80,0.44631,-0.0886378,-0.000367005,0,0,0,0,-0.002284039,38
0,91,0.50692,-0.100906,-0.000380009,0,0,0,0,-0.002284039,38
0,101,0.56202,-0.111948,-0.00039148,0,0,0,0,-0.002284039,38
0,111,0.61712,-0.122989,-0.000405772,0,0,0,0,-0.002284039,38
0,121,0.67222,-0.13495,-0.000421967,0,0,0,0,-0.002284039,38
0,131,0.72732,-0.145379,-0.000438222,0,0,0,0,-0.002284039,38
0,141,0.78242,-0.156727,-0.000452453,0,0,0,0,-0.002284039,38
0,152,0.84303,-0.167768,-0.000472757,0,0,0,0,-0.002284039,38
0,162,0.89813,-0.179116,-0.000493184,0,0,0,0,-0.002284039,38
0,172,0.95323,-0.190158,-0.000512445,0,0,0,0,-0.002284039,38
0,182,1.00833,-0.201506,-0.000534221,0,0,0,0,-0.002284039,38
0,192,1.06343,-0.212547,-0.000557899,0,0,0,0,-0.002284039,38
0,202,1.11853,-0.223589,-0.000575442,0,0,0,0,-0.002284039,38
0,212,1.17363,-0.234323,-0.000599795,0,0,0,0,-0.002284039,38
0,222,1.22873,-0.245365,-0.00062243,0,0,0,0,-0.002284039,38
0,232,1.28383,-0.256406,-0.000644819,0,0,0,0,-0.002284039,38
0,242,1.33893,-0.267448,-0.000671871,0,0,0,0,-0.002284039,38
0,252,1.39403,-0.278489,-0.000694322,0,0,0,0,-0.002284039,38
0,262,1.44913,-0.289224,-0.000715791,0,0,0,0,-0.002284039,38
0,272,1.50423,-0.300572,-0.000741984,0,0,0,0,-0.002284039,38
0,282,1.55933,-0.311307,-0.000765478,0,0,0,0,-0.002284039,38
0,292,1.61443,-0.322655,-0.000791977,0,0,0,0,-0.002284039,38
0,303,1.67504,-0.334923,-0.000815777,0,0,0,0,-0.002284039,38
0,313,1.73014,-0.345351,-0.000841725,0,0,0,0,-0.002284039,38
0,323,1.78524,-0.356392,-0.000864973,0,0,0,0,-0.002284039,38
0,333,1.84034,-0.367741,-0.000894049,0,0,0,0,-0.002284039,38
0,343,1.89544,-0.378782,-0.000911715,0,0,0,0,-0.002284039,38
0,353,1.95054,-0.389823,-0.000932694,0,0,0,0,-0.002284039,38
0,364,2.01115,-0.402092,-0.000949195,0,0,0,0,-0.002284039,38
0,374,2.06625,-0.41252,-0.000969499,0,0,0,0,-0.002284039,38
0,384,2.12135,-0.423561,-0.000982626,0,0,0,0,-0.002284039,38
0,394,2.17645,-0.434909,-0.00100097,0,0,0,0,-0.002284039,38
0,404,2.23155,-0.445951,-0.00100986,0,0,0,0,-0.002284039,38
0,414,2.28665,-0.456992,-0.00102409,0,0,0,0,-0.002284039,38
0,424,2.34175,-0.468034,-0.00103139,0,0,0,0,-0.002284039,38
0,434,2.39685,-0.479075,-0.00104188,0,0,0,0,-0.002284039,38
0,444,2.45195,-0.48981,-0.00105476,0,0,0,0,-0.002284039,38
0,455,2.51256,-0.502385,-0.00106464,0,0,0,0,-0.002284039,38
0,465,2.56766,-0.512506,-0.00107126,0,0,0,0,-0.002284039,38
0,475,2.62276,-0.524468,-0.00108507,0,0,0,0,-0.002284039,38
0,485,2.67786,-0.535202,-0.00109617,0,0,0,0,-0.002284039,38
0,495,2.73296,-0.546244,-0.00110132,0,0,0,0,-0.002284039,38
0,505,2.78806,-0.557592,-0.00111255,0,0,0,0,-0.002284039,38
0,516,2.84867,-0.569247,-0.00112426,0,0,0,0,-0.002284039,38
0,526,2.90377,-0.580288,-0.00114543,0,0,0,0,-0.002284039,38
0,536,2.95887,-0.591023,-0.0011488,0,0,0,0,-0.002284039,38
0,546,3.01397,-0.602371,-0.00116843,0,0,0,0,-0.002284039,38
0,556,3.06907,-0.613412,-0.00117738,0,0,0,0,-0.002284039,38
0,566,3.12417,-0.624454,-0.00119333,0,0,0,0,-0.002284039,38
0,576,3.17927,-0.635802,-0.00121627,0,0,0,0,-0.002284039,38
0,587,3.23988,-0.647457,-0.00123044,0,0,0,0,-0.002284039,38
0,597,3.29498,-0.658498,-0.00125437,0,0,0,0,-0.002284039,38
0,607,3.35008,-0.669233,-0.0012805,0,0,0,0,-0.002284039,38
0,617,3.40518,-0.680581,-0.00130086,0,0,0,0,-0.002284039,38
0,627,3.46028,-0.691316,-0.00133368,0,0,0,0,-0.002284039,38
0,637,3.51538,-0.702357,-0.00135828,0,0,0,0,-0.002284039,38
0,647,3.57048,-0.713705,-0.00139539,0,0,0,0,-0.002284039,38
0,657,3.62558,-0.724747,-0.00142686,0,0,0,0,-0.002284039,38
0,668,3.68619,-0.736095,-0.00146833,0,0,0,0,-0.002284039,38
0,678,3.74129,-0.74775,-0.00150998,0,0,0,0,-0.002284039,38
0,688,3.79639,-0.758178,-0.00154617,0,0,0,0,-0.002284039,38
0,698,3.85149,-0.769833,-0.0015942,0,0,0,0,-0.002284039,38
0,708,3.90659,-0.781181,-0.00161916,0,0,0,0,-0.002284039,38
0,718,3.96169,-0.791609,-0.00164855,0,0,0,0,-0.002284039,38
0,729,4.0223,-0.804184,-0.00166965,0,0,0,0,-0.002284039,38
0,739,4.0774,-0.815225,-0.00168541,0,0,0,0,-0.002284039,38
0,749,4.1325,-0.82596,-0.00171154,0,0,0,0,-0.002284039,38
0,759,4.1876,-0.837001,-0.00172596,0,0,0,0,-0.002284039,38
0,769,4.2427,-0.848043,-0.00173731,0,0,0,0,-0.002284039,38
0,779,4.2978,-0.859084,-0.00176896,0,0,0,0,-0.002284039,38
0,789,4.3529,-0.869819,-0.00178012,0,0,0,0,-0.002284039,38
0,800,4.41351,-0.882394,-0.0018008,0,0,0,0,-0.002284039,38
0,810,4.46861,-0.892822,-0.00183472,0,0,0,0,-0.002284039,38
0,820,4.52371,-0.90417,-0.00184637,0,0,0,0,-0.002284039,38
0,830,4.57881,-0.915211,-0.00187213,0,0,0,0,-0.002284039,38
0,840,4.63391,-0.92656,-0.00190403,0,0,0,0,-0.002284039,38
0,850,4.68901,-0.937294,-0.00192857,0,0,0,0,-0.002284039,38
0,860,4.74411,-0.948336,-0.00195617,0,0,0,0,-0.002284039,38
0,870,4.79921,-0.959377,-0.00199727,0,0,0,0,-0.002284039,38
0,881,4.85982,-0.971032,-0.00201874,0,0,0,0,-0.002284039,38
0,891,4.91492,-0.982073,-0.00204205,0,0,0,0,-0.002284039,38
0,901,4.97002,-0.993422,-0.00206965,0,0,0,0,-0.002284039,38
0,911,5.02512,-1.00446,-0.00207027,0,0,0,0,-0.002284039,38
0,921,5.08022,-1.0155,-0.00207824,0,0,0,0,-0.002284039,38
0,931,5.13532,-1.02655,-0.00209174,0,0,0,0,-0.002284039,38
0,941,5.19042,-1.03759,-0.00209419,0,0,0,0,-0.002284039,38
0,952,5.25103,-1.04986,-0.00211627,0,0,0,0,-0.002284039,38
0,962,5.30613,-1.06059,-0.00211995,0,0,0,0,-0.002284039,38
0,972,5.36123,-1.07163,-0.00212118,0,0,0,0,-0.002284039,38
0,982,5.41633,-1.08267,-0.00214817,0,0,0,0,-0.002284039,38
0,992,5.47143,-1.09371,-0.0021451,0,0,0,0,-0.002284039,38
1,1002,5.553551,-1.09341,-0.00198562,0,0,0,0,-0.002284039,38
1,1012,5.698721,-1.06458,-0.00185067,0,0,0,0,-0.002284039,38
1,1022,5.843891,-1.03513,-0.00174086,0,0,0,0,-0.002284039,38
1,1032,5.989061,-1.006,-0.00164579,0,0,0,0,-0.002284039,38
1,1042,6.134231,-0.977166,-0.00155439,0,0,0,0,-0.002284039,38
1,1052,6.279401,-0.948029,-0.00146053,0,0,0,0,-0.002284039,38
1,1062,6.424571,-0.918892,-0.00136355,0,0,0,0,-0.002284039,38
1,1072,6.569741,-0.890675,-0.00125995,0,0,0,0,-0.002284039,38
1,1082,6.714911,-0.861231,-0.00114518,0,0,0,0,-0.002284039,38
1,1092,6.860081,-0.832707,-0.00100225,0,0,0,0,-0.002284039,38
1,1102,7.005251,-0.803264,-0.000834732,0,0,0,0,-0.002284039,38
1,1112,7.150421,-0.774433,-0.000669601,0,0,0,0,-0.002284039,38
1,1122,7.295591,-0.744989,-0.000539496,0,0,0,0,-0.002284039,38
1,1132,7.440761,-0.715852,-0.000457728,0,0,0,0,-0.002284039,38
1,1143,7.600448,-0.683955,-0.000362097,0,0,0,0,-0.002284039,38
1,1153,7.745618,-0.654818,-0.000270699,0,0,0,0,-0.002284039,38
1,1163,7.890788,-0.625681,-0.000177092,0,0,0,0,-0.002284039,38
1,1173,8.035958,-0.597157,-9.83116e-05,0,0,0,0,-0.002284039,38
1,1183,8.181128,-0.567713,-9.16439e-05,0,0,0,0,-0.002284039,38
1,1193,8.326298,-0.538883,-0.000171976,0,0,0,0,-0.002284039,38
1,1203,8.471468,-0.510359,-0.00023782,0,0,0,0,-0.002284039,38
1,1213,8.616638,-0.481222,-0.000225797,0,0,0,0,-0.002284039,38
1,1223,8.761808,-0.452392,-0.000171633,0,0,0,0,-0.002284039,38
1,1233,8.906978,-0.423561,-8.65587e-05,0,0,0,0,-0.002284039,38
1,1243,9.052148,-0.394117,1.18389e-06,0,0,0,0,-0.002284039,38
1,1253,9.197318,-0.36498,7.76887e-05,0,0,0,0,-0.002284039,38
1,1263,9.342488,-0.335843,0.000125823,0,0,0,0,-0.002284039,38
1,1273,9.487658,-0.306706,0.000161708,0,0,0,0,-0.002284039,38
1,1283,9.632828,-0.277876,0.000203653,0,0,0,0,-0.002284039,38
1,1293,9.777998,-0.248432,0.000246776,0,0,0,0,-0.002284039,38
1,1303,9.923168,-0.219908,0.000297751,0,0,0,0,-0.002284039,38
1,1313,10.0683,-0.190771,0.000323821,0,0,0,0,-0.002284039,38
1,1324,10.228,-0.158874,0.000357865,0,0,0,0,-0.002284039,38
1,1334,10.3732,-0.130043,0.000370869,0,0,0,0,-0.002284039,38
1,1344,10.5184,-0.100906,0.00039056,0,0,0,0,-0.002284039,38
1,1354,10.6635,-0.0720757,0.0004308,0,0,0,0,-0.002284039,38
1,1364,10.8087,-0.0432453,0.00049711,0,0,0,0,-0.002284039,38
1,1374,10.9539,-0.0138015,0.000618933,0,0,0,0,-0.002284039,38
1,1384,11.099,0.0153356,0.000854484,0,0,0,0,-0.002284039,38
1,1394,11.2442,0.0444727,0.00130228,0,0,0,0,-0.002284039,38
1,1404,11.3894,0.0729964,0.00210217,0,0,0,0,-0.002284039,38
1,1414,11.5346,0.101827,0.00324189,0,0,0,0,-0.002284039,38
1,1424,11.6797,0.130964,0.00465274,0,0,0,0,-0.002284039,38
1,1434,11.8249,0.159488,0.0054698,0,0,0,0,-0.002284039,38
1,1444,11.9701,0.188931,0.0051128,0,0,0,0,-0.002284039,38
1,1454,12.1152,0.218068,0.00425279,0,0,0,0,-0.002284039,38
1,1464,12.2604,0.246899,0.00391971,0,0,0,0,-0.002284039,38
1,1474,12.4056,0.276036,0.0038326,0,0,0,0,-0.002284039,38
1,1484,12.5507,0.30456,0.00402276,0,0,0,0,-0.002284039,38
1,1494,12.6959,0.33431,0.00434174,0,0,0,0,-0.002284039,38
1,1505,12.8556,0.366208,0.0047245,0,0,0,0,-0.002284039,38
1,1515,13.0008,0.394425,0.00509194,0,0,0,0,-0.002284039,38
1,1525,13.1459,0.423562,0.00540785,0,0,0,0,-0.002284039,38
1,1535,13.2911,0.453006,0.00578755,0,0,0,0,-0.002284039,38
1,1545,13.4363,0.482143,0.0060458,0,0,0,0,-0.002284039,38
1,1555,13.5815,0.510666,0.00626478,0,0,0,0,-0.002284039,38
1,1565,13.7266,0.539803,0.00644329,0,0,0,0,-0.002284039,38
1,1575,13.8718,0.568941,0.00650402,0,0,0,0,-0.002284039,38
1,1585,14.017,0.597464,0.00650156,0,0,0,0,-0.002284039,38
1,1595,14.1621,0.626908,0.00648623,0,0,0,0,-0.002284039,38
1,1605,14.3073,0.655738,0.0064255,0,0,0,0,-0.002284039,38
1,1615,14.4525,0.685489,0.00638869,0,0,0,0,-0.002284039,38
1,1625,14.5976,0.714013,0.00645617,0,0,0,0,-0.002284039,38
1,1635,14.7428,0.742536,0.00648868,0,0,0,0,-0.002284039,38
1,1645,14.888,0.771367,0.00667393,0,0,0,0,-0.002284039,38
1,1655,15.0332,0.800811,0.00693831,0,0,0,0,-0.002284039,38
1,1665,15.1783,0.829948,0.00753332,0,0,0,0,-0.002284039,38
1,1675,15.3235,0.858165,0.00812711,0,0,0,0,-0.002284039,38
1,1685,15.4687,0.887915,0.00872396,0,0,0,0,-0.002284039,38
1,1695,15.6138,0.916746,0.00976246,0,0,0,0,-0.002284039,38
1,1705,15.759,0.945269,0.0108139,0,0,0,0,-0.002284039,38
1,1715,15.9042,0.9741,0.0118634,0,0,0,0,-0.002284039,38
1,1725,16.0493,1.00354,0.0126645,0,0,0,0,-0.002284039,38
1,1735,16.1945,1.03237,0.0132289,0,0,0,0,-0.002284039,38
1,1745,16.3397,1.06151,0.0136086,0,0,0,0,-0.002284039,38
1,1755,16.4849,1.09034,0.0142318,0,0,0,0,-0.002284039,38
1,1765,16.63,1.11887,0.0148845,0,0,0,0,-0.002284039,38
1,1775,16.7752,1.14831,0.0157156,0,0,0,0,-0.002284039,38
1,1785,16.9204,1.17745,0.0165376,0,0,0,0,-0.002284039,38
1,1795,17.0655,1.20597,0.0183116,0,0,0,0,-0.002284039,38
1,1805,17.2107,1.23327,0.0204021,0,0,0,0,-0.002284039,38
1,1815,17.3559,1.2624,0.0227453,0,0,0,0,-0.002284039,38
1,1826,17.5156,1.29369,0.0245181,0,0,0,0,-0.002284039,38
1,1836,17.6607,1.32252,0.0256959,0,0,0,0,-0.002284039,38
1,1846,17.8059,1.35074,0.0271558,0,0,0,0,-0.002284039,38
1,1856,17.9511,1.38018,0.0299345,0,0,0,0,-0.002284039,38
1,1866,18.0962,1.4084,0.03375,0,0,0,0,-0.002284039,38
1,1876,18.2414,1.43692,0.0380991,0,0,0,0,-0.002284039,38
1,1886,18.3866,1.46514,0.0428898,0,0,0,0,-0.002284039,38
1,1896,18.5317,1.49305,0.0473187,0,0,0,0,-0.002284039,38
1,1906,18.6769,1.52157,0.0516064,0,0,0,0,-0.002284039,38
1,1916,18.8221,1.54979,0.0554402,0,0,0,0,-0.002284039,38
1,1926,18.9673,1.57831,0.0594458,0,0,0,0,-0.002284039,38
1,1936,19.1124,1.60653,0.0642918,0,0,0,0,-0.002284039,38
1,1946,19.2576,1.63413,0.0700947,0,0,0,0,-0.002284039,38
1,1956,19.4028,1.66266,0.0761674,0,0,0,0,-0.002284039,38
1,1966,19.5479,1.68995,0.0827126,0,0,0,0,-0.002284039,38
1,1976,19.6931,1.71817,0.0898466,0,0,0,0,-0.002284039,38
1,1986,19.8383,1.74577,0.0974774,0,0,0,0,-0.002284039,38
1,1996,19.9834,1.7743,0.100606,0,0,0,0,-0.002284039,38
1,2007,20.1431,1.76632,0.0533914,0,0,0,0,-0.002284039,38
1,2017,20.2883,1.74179,0.0251008,0,0,0,0,-0.002284039,38
1,2027,20.4335,1.71296,0.0226043,0,0,0,0,-0.002284039,38
1,2037,20.5786,1.68504,0.0220154,0,0,0,0,-0.002284039,38
1,2047,20.7238,1.65529,0.0202978,0,0,0,0,-0.002284039,38
1,2057,20.869,1.62738,0.0160898,0,0,0,0,-0.002284039,38
1,2067,21.0142,1.59978,0.00944349,0,0,0,0,-0.002284039,38
1,2077,21.1593,1.57156,-0.000119125,0,0,0,0,-0.002284039,38
1,2087,21.3045,1.54457,-0.0129467,0,0,0,0,-0.002284039,38
1,2097,21.4497,1.5185,-0.0256468,0,0,0,0,-0.002284039,38
1,2107,21.5948,1.49121,-0.0372157,0,0,0,0,-0.002284039,38
1,2117,21.74,1.4633,-0.0440308,0,0,0,0,-0.002284039,38
1,2127,21.8852,1.43508,-0.0467298,0,0,0,0,-0.002284039,38
1,2137,22.0303,1.40564,-0.0466746,0,0,0,0,-0.002284039,38
1,2147,22.1755,1.37588,-0.0413379,0,0,0,0,-0.002284039,38
1,2157,22.3207,1.34491,-0.0314251,0,0,0,0,-0.002284039,38
1,2167,22.4659,1.31454,-0.0231441,0,0,0,0,-0.002284039,38
1,2177,22.611,1.28449,-0.0179423,0,0,0,0,-0.002284039,38
1,2187,22.7562,1.25504,-0.0145747,0,0,0,0,-0.002284039,38
1,2197,22.9014,1.22499,-0.0119861,0,0,0,0,-0.002284039,38
1,2207,23.0465,1.19554,-0.00994035,0,0,0,0,-0.002284039,38
1,2217,23.1917,1.1664,-0.00861354,0,0,0,0,-0.002284039,38
1,2227,23.3369,1.13665,-0.00714319,0,0,0,0,-0.002284039,38
1,2237,23.482,1.10813,-0.00595133,0,0,0,0,-0.002284039,38
1,2247,23.6272,1.07899,-0.00499931,0,0,0,0,-0.002284039,38
1,2257,23.7724,1.04986,-0.00416998,0,0,0,0,-0.002284039,38
1,2267,23.9176,1.02133,-0.00338542,0,0,0,0,-0.002284039,38
1,2277,24.0627,0.991889,-0.00281986,0,0,0,0,-0.002284039,38
1,2287,24.2079,0.962445,-0.00235428,0,0,0,0,-0.002284039,38
1,2297,24.3531,0.933921,-0.0019255,0,0,0,0,-0.002284039,38
1,2307,24.4982,0.904171,-0.00152678,0,0,0,0,-0.002284039,38
1,2317,24.6434,0.87534,-0.00124149,0,0,0,0,-0.002284039,38
1,2328,24.8031,0.844056,-0.00178755,0,0,0,0,-0.002284039,38
1,2338,24.9483,0.814306,-0.00174497,0,0,0,0,-0.002284039,38
1,2348,25.0934,0.785169,-0.00161518,0,0,0,0,-0.002284039,38
1,2358,25.2386,0.756645,-0.00148317,0,0,0,0,-0.002284039,38
1,2368,25.3838,0.727508,-0.00135466,0,0,0,0,-0.002284039,38
1,2378,25.5289,0.698371,-0.00125946,0,0,0,0,-0.002284039,38
1,2388,25.6741,0.66954,-0.00117824,0,0,0,0,-0.002284039,38
1,2398,25.8193,0.640403,-0.0010877,0,0,0,0,-0.002284039,38
1,2408,25.9645,0.610959,-0.00101244,0,0,0,0,-0.002284039,38
1,2418,26.1096,0.582129,-0.000935454,0,0,0,0,-0.002284039,38
1,2428,26.2548,0.553605,-0.000867304,0,0,0,0,-0.002284039,38
1,2438,26.4,0.524161,-0.000808048,0,0,0,0,-0.002284039,38
1,2448,26.5451,0.495331,-0.000757626,0,0,0,0,-0.002284039,38
1,2458,26.6903,0.465581,-0.000709473,0,0,0,0,-0.002284039,38
1,2468,26.8355,0.437057,-0.000675122,0,0,0,0,-0.002284039,38
1,2478,26.9806,0.408533,-0.000644022,0,0,0,0,-0.002284039,38
1,2488,27.1258,0.379396,-0.000625926,0,0,0,0,-0.002284039,38
1,2498,27.271,0.350566,-0.000618197,0,0,0,0,-0.002284039,38
1,2509,27.43067,0.318361,-0.00061237,0,0,0,0,-0.002284039,38
1,2519,27.57584,0.289531,-0.000616602,0,0,0,0,-0.002284039,38
1,2529,27.72101,0.260394,-0.000632796,0,0,0,0,-0.002284039,38
1,2539,27.86618,0.231564,-0.000651383,0,0,0,0,-0.002284039,38
1,2549,28.01135,0.202733,-0.000675858,0,0,0,0,-0.002284039,38
1,2559,28.15652,0.172676,-0.000716098,0,0,0,0,-0.002284039,38
1,2569,28.30169,0.143539,-0.000756031,0,0,0,0,-0.002284039,38
1,2579,28.44686,0.114708,-0.000808171,0,0,0,0,-0.002284039,38
1,2589,28.59203,0.0864915,-0.000869696,0,0,0,0,-0.002284039,38
1,2599,28.7372,0.0573544,-0.00093527,0,0,0,0,-0.002284039,38
1,2609,28.88237,0.0279106,-0.00100575,0,0,0,0,-0.002284039,38
1,2619,29.02754,-0.000613119,-0.00108642,0,0,0,0,-0.002284039,38
1,2629,29.17271,-0.0297502,-0.00116745,0,0,0,0,-0.002284039,38
1,2639,29.31788,-0.0588873,-0.00124805,0,0,0,0,-0.002284039,38
1,2649,29.46305,-0.0880244,-0.00131736,0,0,0,0,-0.002284039,38
1,2659,29.60822,-0.116855,-0.00137631,0,0,0,0,-0.002284039,38
1,2669,29.75339,-0.145685,-0.00142048,0,0,0,0,-0.002284039,38
1,2679,29.89856,-0.175129,-0.00147244,0,0,0,0,-0.002284039,38
1,2690,30.0582,-0.207026,-0.00151593,0,0,0,0,-0.002284039,38
1,2700,30.2034,-0.236164,-0.00155328,0,0,0,0,-0.002284039,38
1,2710,30.3486,-0.265301,-0.00158831,0,0,0,0,-0.002284039,38
1,2720,30.4938,-0.294744,-0.00161499,0,0,0,0,-0.002284039,38
1,2730,30.6389,-0.322961,-0.00163971,0,0,0,0,-0.002284039,38
1,2740,30.7841,-0.351485,-0.00167566,0,0,0,0,-0.002284039,38
1,2750,30.9293,-0.381542,-0.00170854,0,0,0,0,-0.002284039,38
1,2760,31.0744,-0.410066,-0.00174516,0,0,0,0,-0.002284039,38
1,2770,31.2196,-0.438283,-0.00178957,0,0,0,0,-0.002284039,38
1,2780,31.3648,-0.468034,-0.00183901,0,0,0,0,-0.002284039,38
1,2790,31.5099,-0.496864,-0.00190526,0,0,0,0,-0.002284039,38
1,2800,31.6551,-0.526308,-0.00197212,0,0,0,0,-0.002284039,38
1,2810,31.8003,-0.555138,-0.00205677,0,0,0,0,-0.002284039,38
1,2820,31.9455,-0.584275,-0.00215553,0,0,0,0,-0.002284039,38
1,2830,32.0906,-0.613412,-0.00224141,0,0,0,0,-0.002284039,38
1,2840,32.2358,-0.642856,-0.00233649,0,0,0,0,-0.002284039,38
1,2850,32.381,-0.671687,-0.00242114,0,0,0,0,-0.002284039,38
1,2860,32.5261,-0.699904,-0.00253401,0,0,0,0,-0.002284039,38
1,2870,32.6713,-0.729654,-0.00265608,0,0,0,0,-0.002284039,38
1,2880,32.8165,-0.758178,-0.00279409,0,0,0,0,-0.002284039,38
1,2890,32.9616,-0.787315,-0.00297076,0,0,0,0,-0.002284039,38
1,2900,33.1068,-0.816452,-0.00320324,0,0,0,0,-0.002284039,38
1,2910,33.252,-0.845282,-0.00345658,0,0,0,0,-0.002284039,38
1,2920,33.3972,-0.874726,-0.00377739,0,0,0,0,-0.002284039,38
1,2930,33.5423,-0.902943,-0.00417734,0,0,0,0,-0.002284039,38
1,2940,33.6875,-0.93208,-0.00468402,0,0,0,0,-0.002284039,38
1,2950,33.8327,-0.960911,-0.00530602,0,0,0,0,-0.002284039,38
1,2960,33.9778,-0.990354,-0.00609487,0,0,0,0,-0.002284039,38
1,2970,34.123,-1.01888,-0.00711681,0,0,0,0,-0.002284039,38
1,2980,34.2682,-1.04832,-0.0085019,0,0,0,0,-0.002284039,38
1,2990,34.4133,-1.07654,-0.0103881,0,0,0,0,-0.002284039,38
2,3001,34.573,-1.09341,-0.012037,0,0,0,0,-0.002284039,38
2,3011,34.7182,-1.06396,-0.0110684,0,0,0,0,-0.002284039,38
2,3021,34.8634,-1.03513,-0.0100127,0,0,0,0,-0.002284039,38
2,3031,35.0085,-1.00661,-0.00888896,0,0,0,0,-0.002284039,38
2,3041,35.1537,-0.977166,-0.00776335,0,0,0,0,-0.002284039,38
2,3051,35.2989,-0.948642,-0.00660155,0,0,0,0,-0.002284039,38
2,3061,35.4441,-0.919812,-0.00550783,0,0,0,0,-0.002284039,38
2,3071,35.5892,-0.890675,-0.00452883,0,0,0,0,-0.002284039,38
2,3081,35.7344,-0.861538,-0.00370317,0,0,0,0,-0.002284039,38
2,3091,35.8796,-0.833014,-0.00304007,0,0,0,0,-0.002284039,38
2,3101,36.0247,-0.80357,-0.0025383,0,0,0,0,-0.002284039,38
2,3111,36.1699,-0.775047,-0.00216964,0,0,0,0,-0.002284039,38
2,3121,36.3151,-0.74591,-0.00190526,0,0,0,0,-0.002284039,38
2,3131,36.4602,-0.717386,-0.00170651,0,0,0,0,-0.002284039,38
2,3141,36.6054,-0.687942,-0.001555,0,0,0,0,-0.002284039,38
2,3151,36.7506,-0.659112,-0.00141944,0,0,0,0,-0.002284039,38
2,3161,36.8958,-0.629975,-0.00129123,0,0,0,0,-0.002284039,38
2,3171,37.0409,-0.600837,-0.00118333,0,0,0,0,-0.002284039,38
2,3182,37.2006,-0.56894,-0.00106047,0,0,0,0,-0.002284039,38
2,3192,37.3458,-0.539803,-0.000924904,0,0,0,0,-0.002284039,38
2,3202,37.491,-0.510666,-0.000792161,0,0,0,0,-0.002284039,38
2,3212,37.6361,-0.481835,-0.000656229,0,0,0,0,-0.002284039,38
2,3222,37.7813,-0.452698,-0.000523548,0,0,0,0,-0.002284039,38
2,3232,37.9265,-0.423868,-0.000407429,0,0,0,0,-0.002284039,38
2,3242,38.0716,-0.395344,-0.000281004,0,0,0,0,-0.002284039,38
2,3252,38.2168,-0.3659,-0.000157218,0,0,0,0,-0.002284039,38
2,3262,38.362,-0.33707,-7.55786e-05,0,0,0,0,-0.002284039,38
2,3272,38.5071,-0.307626,-7.21496e-05,0,0,0,0,-0.002284039,38
2,3282,38.6523,-0.278796,-5.86913e-05,0,0,0,0,-0.002284039,38
2,3292,38.7975,-0.249965,9.5858e-05,0,0,0,0,-0.002284039,38
2,3302,38.9427,-0.220828,0.000317686,0,0,0,0,-0.002284039,38
2,3312,39.0878,-0.191691,0.000523916,0,0,0,0,-0.002284039,38
2,3322,39.233,-0.163167,0.000674693,0,0,0,0,-0.002284039,38
2,3332,39.3782,-0.13403,0.000784371,0,0,0,0,-0.002284039,38
2,3342,39.5233,-0.1052,0.0008616,0,0,0,0,-0.002284039,38
2,3352,39.6685,-0.0760629,0.000928645,0,0,0,0,-0.002284039,38
2,3362,39.8137,-0.0469258,0.000937908,0,0,0,0,-0.002284039,38
2,3372,39.9588,-0.0177887,0.000793388,0,0,0,0,-0.002284039,38
2,3382,40.104,0.0113484,0.000732353,0,0,0,0,-0.002284039,38
2,3392,40.2492,0.0398721,0.000745665,0,0,0,0,-0.002284039,38
2,3402,40.3944,0.0693159,0.000803141,0,0,0,0,-0.002284039,38
2,3412,40.5395,0.098453,0.00089135,0,0,0,0,-0.002284039,38
2,3422,40.6847,0.127283,0.000971462,0,0,0,0,-0.002284039,38
2,3432,40.8299,0.157034,0.00102606,0,0,0,0,-0.002284039,38
2,3442,40.975,0.184944,0.00105752,0,0,0,0,-0.002284039,38
2,3452,41.1202,0.214388,0.00111782,0,0,0,0,-0.002284039,38
2,3462,41.2654,0.243218,0.00116401,0,0,0,0,-0.002284039,38
2,3472,41.4105,0.272662,0.00118585,0,0,0,0,-0.002284039,38
2,3482,41.5557,0.301493,0.00121266,0,0,0,0,-0.002284039,38
2,3492,41.7009,0.33063,0.0012394,0,0,0,0,-0.002284039,38
2,3503,41.8606,0.36222,0.00130142,0,0,0,0,-0.002284039,38
2,3513,42.0057,0.391051,0.00138478,0,0,0,0,-0.002284039,38
2,3523,42.1509,0.420188,0.00150961,0,0,0,0,-0.002284039,38
2,3533,42.2961,0.449325,0.00172565,0,0,0,0,-0.002284039,38
2,3543,42.4412,0.478769,0.0021083,0,0,0,0,-0.002284039,38
2,3553,42.5864,0.506986,0.00265362,0,0,0,0,-0.002284039,38
2,3563,42.7316,0.536123,0.00324925,0,0,0,0,-0.002284039,38
2,3573,42.8768,0.56526,0.0037639,0,0,0,0,-0.002284039,38
2,3583,43.0219,0.59409,0.00405098,0,0,0,0,-0.002284039,38
2,3593,43.1671,0.623534,0.00427181,0,0,0,0,-0.002284039,38
2,3603,43.3123,0.652365,0.00440921,0,0,0,0,-0.002284039,38
2,3613,43.4574,0.681502,0.00453557,0,0,0,0,-0.002284039,38
2,3623,43.6026,0.710025,0.004857,0,0,0,0,-0.002284039,38
2,3633,43.7478,0.739163,0.00511709,0,0,0,0,-0.002284039,38
2,3643,43.8929,0.7683,0.00555752,0,0,0,0,-0.002284039,38
2,3653,44.0381,0.79713,0.00607524,0,0,0,0,-0.002284039,38
2,3663,44.1833,0.826267,0.00670951,0,0,0,0,-0.002284039,38
2,3673,44.3285,0.854484,0.00742966,0,0,0,0,-0.002284039,38
2,3684,44.4881,0.886995,0.00830438,0,0,0,0,-0.002284039,38
2,3694,44.6333,0.915825,0.0092153,0,0,0,0,-0.002284039,38
2,3704,44.7785,0.945269,0.0101035,0,0,0,0,-0.002284039,38
2,3714,44.9237,0.973793,0.010831,0,0,0,0,-0.002284039,38
2,3724,45.0688,1.00232,0.0112089,0,0,0,0,-0.002284039,38
2,3734,45.214,1.03176,0.011461,0,0,0,0,-0.002284039,38
2,3744,45.3592,1.0609,0.0116585,0,0,0,0,-0.002284039,38
2,3754,45.5043,1.08973,0.0119063,0,0,0,0,-0.002284039,38
2,3764,45.6495,1.11794,0.0119922,0,0,0,0,-0.002284039,38
2,3774,45.7947,1.1477,0.0123094,0,0,0,0,-0.002284039,38
2,3784,45.9398,1.17622,0.0125946,0,0,0,0,-0.002284039,38
2,3794,46.085,1.20566,0.0128725,0,0,0,0,-0.002284039,38
2,3804,46.2302,1.23449,0.0128565,0,0,0,0,-0.002284039,38
2,3814,46.3754,1.26332,0.0125467,0,0,0,0,-0.002284039,38
2,3824,46.5205,1.29307,0.0126921,0,0,0,0,-0.002284039,38
2,3834,46.6657,1.3216,0.0127927,0,0,0,0,-0.002284039,38
2,3844,46.8109,1.35074,0.0130203,0,0,0,0,-0.002284039,38
2,3854,46.956,1.37987,0.0133264,0,0,0,0,-0.002284039,38
2,3865,47.1157,1.41146,0.0140944,0,0,0,0,-0.002284039,38
2,3875,47.2609,1.44029,0.0148857,0,0,0,0,-0.002284039,38
2,3885,47.4061,1.46943,0.0161536,0,0,0,0,-0.002284039,38
2,3895,47.5512,1.49673,0.0197396,0,0,0,0,-0.002284039,38
2,3905,47.6964,1.52494,0.0251008,0,0,0,0,-0.002284039,38
2,3915,47.8416,1.55316,0.0310019,0,0,0,0,-0.002284039,38
2,3925,47.9867,1.58076,0.0375531,0,0,0,0,-0.002284039,38
2,3935,48.1319,1.60837,0.0444908,0,0,0,0,-0.002284039,38
2,3945,48.2771,1.63628,0.0519622,0,0,0,0,-0.002284039,38
2,3955,48.4223,1.66419,0.0596605,0,0,0,0,-0.002284039,38
2,3965,48.5674,1.69179,0.0677269,0,0,0,0,-0.002284039,38
2,3975,48.7126,1.7194,0.0759712,0,0,0,0,-0.002284039,38
2,3985,48.8578,1.74731,0.0844976,0,0,0,0,-0.002284039,38
2,3995,49.0029,1.7746,0.0931774,0,0,0,0,-0.002284039,38
2,4005,49.1481,1.76479,0.0839885,0,0,0,0,-0.002284039,38
2,4015,49.2933,1.73811,0.0695794,0,0,0,0,-0.002284039,38
2,4025,49.4384,1.71112,0.0563788,0,0,0,0,-0.002284039,38
2,4035,49.5836,1.68504,0.0421905,0,0,0,0,-0.002284039,38
2,4045,49.7288,1.65775,0.0292905,0,0,0,0,-0.002284039,38
2,4055,49.874,1.63076,0.0178748,0,0,0,0,-0.002284039,38
2,4065,50.0191,1.60377,0.00693831,0,0,0,0,-0.002284039,38
2,4075,50.1643,1.57616,-0.00586668,0,0,0,0,-0.002284039,38
2,4085,50.3095,1.54887,-0.0180429,0,0,0,0,-0.002284039,38
2,4095,50.4546,1.5228,-0.0270024,0,0,0,0,-0.002284039,38
2,4105,50.5998,1.49458,-0.032928,0,0,0,0,-0.002284039,38
2,4115,50.745,1.46575,-0.0372832,0,0,0,0,-0.002284039,38
2,4125,50.8901,1.43753,-0.0389517,0,0,0,0,-0.002284039,38
2,4135,51.0353,1.40748,-0.0362711,0,0,0,0,-0.002284039,38
2,4145,51.1805,1.37742,-0.0288304,0,0,0,0,-0.002284039,38
2,4155,51.3257,1.34705,-0.0212057,0,0,0,0,-0.002284039,38
2,4165,51.4708,1.31761,-0.0160714,0,0,0,0,-0.002284039,38
2,4175,51.616,1.28755,-0.0127013,0,0,0,0,-0.002284039,38
2,4186,51.7757,1.25504,-0.010136,0,0,0,0,-0.002284039,38
2,4196,51.9208,1.22529,-0.0083283,0,0,0,0,-0.002284039,38
2,4206,52.066,1.19646,-0.00687452,0,0,0,0,-0.002284039,38
2,4216,52.2112,1.16732,-0.00571762,0,0,0,0,-0.002284039,38
2,4226,52.3564,1.13819,-0.00472389,0,0,0,0,-0.002284039,38
2,4236,52.5015,1.10905,-0.00384058,0,0,0,0,-0.002284039,38
2,4246,52.6467,1.07991,-0.00309405,0,0,0,0,-0.002284039,38
2,4256,52.7919,1.05047,-0.00251806,0,0,0,0,-0.002284039,38
2,4266,52.937,1.02164,-0.00294315,0,0,0,0,-0.002284039,38
2,4276,53.0822,0.992502,-0.00273214,0,0,0,0,-0.002284039,38
2,4286,53.2274,0.963672,-0.00245856,0,0,0,0,-0.002284039,38
2,4296,53.3725,0.934534,-0.00221013,0,0,0,0,-0.002284039,38
2,4306,53.5177,0.906011,-0.00195188,0,0,0,0,-0.002284039,38
2,4316,53.6629,0.876567,-0.00173166,0,0,0,0,-0.002284039,38
2,4326,53.8081,0.84743,-0.00151452,0,0,0,0,-0.002284039,38
2,4336,53.9532,0.817986,-0.00127866,0,0,0,0,-0.002284039,38
2,4346,54.0984,0.789462,-0.0011215,0,0,0,0,-0.002284039,38
2,4356,54.2436,0.760325,-0.000982871,0,0,0,0,-0.002284039,38
2,4367,54.4033,0.728121,-0.000854607,0,0,0,0,-0.002284039,38
2,4377,54.5484,0.699904,-0.000747811,0,0,0,0,-0.002284039,38
2,4387,54.6936,0.67046,-0.000663712,0,0,0,0,-0.002284039,38
2,4397,54.8388,0.641323,-0.000596421,0,0,0,0,-0.002284039,38
2,4407,54.9839,0.612186,-0.000547532,0,0,0,0,-0.002284039,38
2,4417,55.1291,0.583356,-0.000506249,0,0,0,0,-0.002284039,38
2,4427,55.2743,0.554219,-0.000486682,0,0,0,0,-0.002284039,38
2,4437,55.4194,0.525388,-0.000477419,0,0,0,0,-0.002284039,38
2,4447,55.5646,0.495638,-0.000470487,0,0,0,0,-0.002284039,38
2,4457,55.7098,0.467421,-0.000464783,0,0,0,0,-0.002284039,38
2,4467,55.855,0.437977,-0.000473125,0,0,0,0,-0.002284039,38
2,4477,56.0001,0.409453,-0.000483124,0,0,0,0,-0.002284039,38
2,4487,56.1453,0.380009,-0.000497355,0,0,0,0,-0.002284039,38
2,4497,56.2905,0.351179,-0.000512936,0,0,0,0,-0.002284039,38
2,4507,56.4356,0.322042,-0.000531399,0,0,0,0,-0.002284039,38
2,4517,56.5808,0.293212,-0.000550476,0,0,0,0,-0.002284039,38
2,4527,56.726,0.263768,-0.000575626,0,0,0,0,-0.002284039,38
2,4537,56.8711,0.234631,-0.000602555,0,0,0,0,-0.002284039,38
2,4547,57.0163,0.206107,-0.000625742,0,0,0,0,-0.002284039,38
2,4557,57.1615,0.176356,-0.000658008,0,0,0,0,-0.002284039,38
2,4567,57.3067,0.148139,-0.000689353,0,0,0,0,-0.002284039,38
2,4577,57.4518,0.119002,-0.000729716,0,0,0,0,-0.002284039,38
2,4587,57.597,0.090172,-0.000770446,0,0,0,0,-0.002284039,38
2,4597,57.7422,0.0613416,-0.000825101,0,0,0,0,-0.002284039,38
2,4607,57.8873,0.0325112,-0.00089135,0,0,0,0,-0.002284039,38
2,4617,58.0325,0.00245394,-0.000962997,0,0,0,0,-0.002284039,38
2,4627,58.1777,-0.0260697,-0.00103949,0,0,0,0,-0.002284039,38
2,4637,58.3228,-0.0552068,-0.00111518,0,0,0,0,-0.002284039,38
2,4647,58.468,-0.0843439,-0.00119769,0,0,0,0,-0.002284039,38
2,4657,58.6132,-0.113788,-0.00127406,0,0,0,0,-0.002284039,38
2,4667,58.7584,-0.142311,-0.00134012,0,0,0,0,-0.002284039,38
2,4677,58.9035,-0.170835,-0.00139104,0,0,0,0,-0.002284039,38
2,4688,59.0632,-0.203039,-0.00143815,0,0,0,0,-0.002284039,38
2,4698,59.2084,-0.23187,-0.00149403,0,0,0,0,-0.002284039,38
2,4708,59.3536,-0.261007,-0.00154549,0,0,0,0,-0.002284039,38
2,4718,59.4987,-0.28953,-0.00158616,0,0,0,0,-0.002284039,38
2,4728,59.6439,-0.319281,-0.00162352,0,0,0,0,-0.002284039,38
2,4738,59.7891,-0.348111,-0.00166308,0,0,0,0,-0.002284039,38
2,4748,59.9342,-0.377248,-0.00170032,0,0,0,0,-0.002284039,38
2,4758,60.0794,-0.406386,-0.00173553,0,0,0,0,-0.002284039,38
2,4768,60.2246,-0.434909,-0.00176988,0,0,0,0,-0.002284039,38
2,4778,60.3697,-0.464353,-0.0018149,0,0,0,0,-0.002284039,38
2,4788,60.5149,-0.494104,-0.00186539,0,0,0,0,-0.002284039,38
2,4798,60.6601,-0.522627,-0.00191078,0,0,0,0,-0.002284039,38
2,4808,60.8053,-0.551764,-0.00198071,0,0,0,0,-0.002284039,38
2,4818,60.9504,-0.580595,-0.00205432,0,0,0,0,-0.002284039,38
2,4828,61.0956,-0.609119,-0.00215676,0,0,0,0,-0.002284039,38
2,4838,61.2408,-0.638562,-0.00225981,0,0,0,0,-0.002284039,38
2,4848,61.3859,-0.667699,-0.00236409,0,0,0,0,-0.002284039,38
2,4858,61.5311,-0.69653,-0.00247205,0,0,0,0,-0.002284039,38
2,4869,61.69079,-0.728121,-0.00259842,0,0,0,0,-0.002284039,38
2,4879,61.83596,-0.757564,-0.00269717,0,0,0,0,-0.002284039,38
2,4889,61.98113,-0.786395,-0.0028309,0,0,0,0,-0.002284039,38
2,4899,62.1263,-0.815532,-0.0030002,0,0,0,0,-0.002284039,38
2,4909,62.27147,-0.844362,-0.00321121,0,0,0,0,-0.002284039,38
2,4919,62.41664,-0.873499,-0.00348173,0,0,0,0,-0.002284039,38
2,4929,62.56181,-0.902636,-0.0038007,0,0,0,0,-0.002284039,38
2,4939,62.70698,-0.93116,-0.00420249,0,0,0,0,-0.002284039,38
2,4949,62.85215,-0.960911,-0.00473984,0,0,0,0,-0.002284039,38
2,4959,62.99732,-0.989128,-0.00541337,0,0,0,0,-0.002284039,38
2,4969,63.14249,-1.01796,-0.006293,0,0,0,0,-0.002284039,38
2,4979,63.28766,-1.0471,-0.00746523,0,0,0,0,-0.002284039,38
2,4989,63.43283,-1.07562,-0.00910243,0,0,0,0,-0.002284039,38
3,4999,63.578,-1.09678,-0.0109083,0,0,0,0,-0.002284039,38
3,5009,63.72317,-1.06826,-0.0100097,0,0,0,0,-0.002284039,38
3,5019,63.86834,-1.03912,-0.00891841,0,0,0,0,-0.002284039,38
3,5029,64.01351,-1.0106,-0.00768422,0,0,0,0,-0.002284039,38
3,5039,64.15868,-0.981767,-0.00641568,0,0,0,0,-0.002284039,38
3,5050,64.3184,-0.949563,-0.0051269,0,0,0,0,-0.002284039,38
3,5060,64.4635,-0.920732,-0.00413072,0,0,0,0,-0.002284039,38
3,5070,64.6087,-0.891902,-0.00335107,0,0,0,0,-0.002284039,38
3,5080,64.7539,-0.862765,-0.00277569,0,0,0,0,-0.002284039,38
3,5090,64.899,-0.833934,-0.00236961,0,0,0,0,-0.002284039,38
3,5100,65.0442,-0.805104,-0.00210094,0,0,0,0,-0.002284039,38
3,5110,65.1894,-0.775967,-0.00189115,0,0,0,0,-0.002284039,38
3,5120,65.3346,-0.74683,-0.00171878,0,0,0,0,-0.002284039,38
3,5130,65.4797,-0.718306,-0.00156972,0,0,0,0,-0.002284039,38
3,5140,65.6249,-0.689169,-0.00145501,0,0,0,0,-0.002284039,38
3,5150,65.7701,-0.660645,-0.00134018,0,0,0,0,-0.002284039,38
3,5160,65.9152,-0.630895,-0.00120223,0,0,0,0,-0.002284039,38
3,5170,66.0604,-0.601758,-0.00106452,0,0,0,0,-0.002284039,38
3,5180,66.2056,-0.572927,-0.00093251,0,0,0,0,-0.002284039,38
3,5190,66.3507,-0.543483,-0.000784309,0,0,0,0,-0.002284039,38
3,5200,66.4959,-0.514653,-0.000641384,0,0,0,0,-0.002284039,38
3,5210,66.6411,-0.486743,-0.00050306,0,0,0,0,-0.002284039,38
3,5220,66.7863,-0.456992,-0.000383996,0,0,0,0,-0.002284039,38
3,5230,66.9314,-0.428162,-0.000278121,0,0,0,0,-0.002284039,38
3,5240,67.0766,-0.398411,-0.000178196,0,0,0,0,-0.002284039,38
3,5250,67.2218,-0.369581,-0.000155009,0,0,0,0,-0.002284039,38
3,5260,67.3669,-0.341057,-0.000141698,0,0,0,0,-0.002284039,38
3,5270,67.5121,-0.31192,1.18781e-05,0,0,0,0,-0.002284039,38
3,5280,67.6573,-0.282476,0.000236164,0,0,0,0,-0.002284039,38
3,5290,67.8024,-0.253953,0.000451717,0,0,0,0,-0.002284039,38
3,5300,67.9476,-0.224815,0.000584092,0,0,0,0,-0.002284039,38
3,5310,68.0928,-0.195372,0.000670644,0,0,0,0,-0.002284039,38
3,5320,68.238,-0.166848,0.000751737,0,0,0,0,-0.002284039,38
3,5330,68.3831,-0.138018,0.000813815,0,0,0,0,-0.002284039,38
3,5340,68.5283,-0.10888,0.000859391,0,0,0,0,-0.002284039,38
3,5350,68.6735,-0.0791299,0.000833628,0,0,0,0,-0.002284039,38
3,5360,68.8186,-0.0506063,0.000746401,0,0,0,0,-0.002284039,38
3,5371,68.9783,-0.0187088,0.000727508,0,0,0,0,-0.002284039,38
3,5381,69.1235,0.0101216,0.000766766,0,0,0,0,-0.002284039,38
3,5391,69.2687,0.0395654,0.000826451,0,0,0,0,-0.002284039,38
3,5401,69.4138,0.0683958,0.000896503,0,0,0,0,-0.002284039,38
3,5411,69.559,0.0969195,0.000953305,0,0,0,0,-0.002284039,38
3,5421,69.7042,0.126057,0.000986184,0,0,0,0,-0.002284039,38
3,5431,69.8493,0.155194,0.0010217,0,0,0,0,-0.002284039,38
3,5441,69.9945,0.183717,0.00106243,0,0,0,0,-0.002284039,38
3,5451,70.1397,0.213468,0.00110721,0,0,0,0,-0.002284039,38
3,5461,70.2849,0.241992,0.0011553,0,0,0,0,-0.002284039,38
3,5471,70.43,0.271435,0.00120364,0,0,0,0,-0.002284039,38
3,5481,70.5752,0.300879,0.00110494,0,0,0,0,-0.002284039,38
3,5491,70.7204,0.32971,0.00130295,0,0,0,0,-0.002284039,38
3,5501,70.8655,0.359153,0.00124106,0,0,0,0,-0.002284039,38
3,5511,71.0107,0.38737,0.0013335,0,0,0,0,-0.002284039,38
3,5521,71.1559,0.416201,0.0015074,0,0,0,0,-0.002284039,38
3,5531,71.301,0.445031,0.00177767,0,0,0,0,-0.002284039,38
3,5541,71.4462,0.474782,0.00220277,0,0,0,0,-0.002284039,38
3,5552,71.6059,0.506679,0.00280207,0,0,0,0,-0.002284039,38
3,5562,71.7511,0.534896,0.00336334,0,0,0,0,-0.002284039,38
3,5572,71.8962,0.564647,0.00396878,0,0,0,0,-0.002284039,38
3,5582,72.0414,0.593477,0.00420801,0,0,0,0,-0.002284039,38
3,5592,72.1866,0.622001,0.00414483,0,0,0,0,-0.002284039,38
3,5602,72.3318,0.651138,0.00438774,0,0,0,0,-0.002284039,38
3,5612,72.4769,0.680275,0.00444602,0,0,0,0,-0.002284039,38
3,5622,72.6221,0.709105,0.00473248,0,0,0,0,-0.002284039,38
3,5632,72.7673,0.738242,0.00495208,0,0,0,0,-0.002284039,38
3,5642,72.9124,0.767686,0.00540785,0,0,0,0,-0.002284039,38
3,5652,73.0576,0.796517,0.0060458,0,0,0,0,-0.002284039,38
3,5662,73.2028,0.824734,0.00663406,0,0,0,0,-0.002284039,38
3,5672,73.3479,0.854177,0.00731679,0,0,0,0,-0.002284039,38
3,5682,73.4931,0.883315,0.00813631,0,0,0,0,-0.002284039,38
3,5692,73.6383,0.911838,0.00905336,0,0,0,0,-0.002284039,38
3,5702,73.7835,0.941282,0.00998452,0,0,0,0,-0.002284039,38
3,5712,73.9286,0.969499,0.0107108,0,0,0,0,-0.002284039,38
3,5722,74.0738,0.998943,0.0112598,0,0,0,0,-0.002284039,38
3,5732,74.219,1.02747,0.0115843,0,0,0,0,-0.002284039,38
3,5742,74.3641,1.0563,0.0118935,0,0,0,0,-0.002284039,38
3,5752,74.5093,1.08574,0.0120247,0,0,0,0,-0.002284039,38
3,5762,74.6545,1.11518,0.0122296,0,0,0,0,-0.002284039,38
3,5772,74.7996,1.14371,0.0126639,0,0,0,0,-0.002284039,38
3,5782,74.9448,1.17223,0.0131914,0,0,0,0,-0.002284039,38
3,5792,75.09,1.20198,0.0134607,0,0,0,0,-0.002284039,38
3,5802,75.2352,1.23051,0.0135313,0,0,0,0,-0.002284039,38
3,5812,75.3803,1.25964,0.0135319,0,0,0,0,-0.002284039,38
3,5822,75.5255,1.28878,0.0131632,0,0,0,0,-0.002284039,38
3,5832,75.6707,1.31792,0.0133975,0,0,0,0,-0.002284039,38
3,5842,75.8158,1.34644,0.0134981,0,0,0,0,-0.002284039,38
3,5852,75.961,1.37527,0.0137159,0,0,0,0,-0.002284039,38
3,5863,76.1207,1.40748,0.0154635,0,0,0,0,-0.002284039,38
3,5873,76.2659,1.43508,0.0188134,0,0,0,0,-0.002284039,38
3,5883,76.411,1.46299,0.0238802,0,0,0,0,-0.002284039,38
3,5893,76.5562,1.49151,0.0289408,0,0,0,0,-0.002284039,38
3,5903,76.7014,1.51912,0.0352406,0,0,0,0,-0.002284039,38
3,5913,76.8465,1.54703,0.042123,0,0,0,0,-0.002284039,38
3,5923,76.9917,1.57463,0.0489933,0,0,0,0,-0.002284039,38
3,5933,77.1369,1.60285,0.0569308,0,0,0,0,-0.002284039,38
3,5943,77.282,1.63045,0.0651628,0,0,0,0,-0.002284039,38
3,5953,77.4272,1.65836,0.0733826,0,0,0,0,-0.002284039,38
3,5963,77.5724,1.68566,0.082228,0,0,0,0,-0.002284039,38
3,5973,77.7176,1.71357,0.090871,0,0,0,0,-0.002284039,38
3,5983,77.8627,1.74025,0.0999863,0,0,0,0,-0.002284039,38
3,5993,78.0079,1.76786,0.109347,0,0,0,0,-0.002284039,38
3,6003,78.1531,1.76602,0.10052,0,0,0,0,-0.002284039,38
3,6013,78.2982,1.74271,0.0628932,0,0,0,0,-0.002284039,38
3,6023,78.4434,1.71878,0.0344309,0,0,0,0,-0.002284039,38
3,6033,78.5886,1.69179,0.0244568,0,0,0,0,-0.002284039,38
3,6044,78.7483,1.6599,0.022181,0,0,0,0,-0.002284039,38
3,6054,78.8934,1.63106,0.0199666,0,0,0,0,-0.002284039,38
3,6064,79.0386,1.60346,0.0160775,0,0,0,0,-0.002284039,38
3,6074,79.1838,1.57586,0.0102507,0,0,0,0,-0.002284039,38
3,6084,79.3289,1.54764,0.000965512,0,0,0,0,-0.002284039,38
3,6094,79.4741,1.52004,-0.0114671,0,0,0,0,-0.002284039,38
3,6104,79.6193,1.49366,-0.0241746,0,0,0,0,-0.002284039,38
3,6114,79.7645,1.46667,-0.0342959,0,0,0,0,-0.002284039,38
3,6124,79.9096,1.43845,-0.0391725,0,0,0,0,-0.002284039,38
3,6134,80.0548,1.40993,-0.0419452,0,0,0,0,-0.002284039,38
3,6144,80.2,1.38079,-0.0420065,0,0,0,0,-0.002284039,38
3,6154,80.3451,1.35043,-0.0371176,0,0,0,0,-0.002284039,38
3,6164,80.4903,1.32037,-0.0284133,0,0,0,0,-0.002284039,38
3,6174,80.6355,1.29001,-0.0212425,0,0,0,0,-0.002284039,38
3,6184,80.7806,1.25995,-0.0164824,0,0,0,0,-0.002284039,38
3,6194,80.9258,1.22959,-0.0133534,0,0,0,0,-0.002284039,38
3,6204,81.071,1.20076,-0.0110874,0,0,0,0,-0.002284039,38
3,6214,81.2162,1.17162,-0.00932939,0,0,0,0,-0.002284039,38
3,6225,81.3758,1.13911,-0.00767686,0,0,0,0,-0.002284039,38
3,6235,81.521,1.10966,-0.00646782,0,0,0,0,-0.002284039,38
3,6245,81.6662,1.08114,-0.00553912,0,0,0,0,-0.002284039,38
3,6255,81.8114,1.052,-0.00457606,0,0,0,0,-0.002284039,38
3,6265,81.9565,1.02256,-0.00381727,0,0,0,0,-0.002284039,38
3,6275,82.1017,0.993729,-0.00314926,0,0,0,0,-0.002284039,38
3,6285,82.2469,0.964592,-0.00258308,0,0,0,0,-0.002284039,38
3,6295,82.392,0.935148,-0.00211075,0,0,0,0,-0.002284039,38
3,6305,82.5372,0.906624,-0.00168811,0,0,0,0,-0.002284039,38
3,6315,82.6824,0.877487,-0.00131516,0,0,0,0,-0.002284039,38
3,6325,82.8275,0.848043,-0.000982994,0,0,0,0,-0.002284039,38
3,6335,82.9727,0.819213,-0.000686961,0,0,0,0,-0.002284039,38
3,6345,83.1179,0.790383,-0.000444601,0,0,0,0,-0.002284039,38
3,6355,83.2631,0.760632,-0.000227269,0,0,0,0,-0.002284039,38
3,6365,83.4082,0.732108,-5.86852e-05,0,0,0,0,-0.002284039,38
3,6375,83.5534,0.702971,6.94322e-05,0,0,0,0,-0.002284039,38
3,6385,83.6986,0.674448,0.000153807,0,0,0,0,-0.002284039,38
3,6395,83.8437,0.645004,-0.000195249,0,0,0,0,-0.002284039,38
3,6405,83.9889,0.616173,-0.000463556,0,0,0,0,-0.002284039,38
3,6415,84.1341,0.58673,-0.00043356,0,0,0,0,-0.002284039,38
3,6425,84.2792,0.557899,-0.000390314,0,0,0,0,-0.002284039,38
3,6435,84.4244,0.529069,-0.000342284,0,0,0,0,-0.002284039,38
3,6445,84.5696,0.499932,-0.000294929,0,0,0,0,-0.002284039,38
3,6455,84.7148,0.471101,-0.000230582,0,0,0,0,-0.002284039,38
3,6465,84.8599,0.442578,-0.000178135,0,0,0,0,-0.002284039,38
3,6475,85.0051,0.413134,-0.000142557,0,0,0,0,-0.002284039,38
3,6485,85.1503,0.383997,-0.000140042,0,0,0,0,-0.002284039,38
3,6495,85.2954,0.35486,-0.000159291,0,0,0,0,-0.002284039,38
3,6505,85.4406,0.325722,-0.000191323,0,0,0,0,-0.002284039,38
3,6515,85.5858,0.296892,-0.000230275,0,0,0,0,-0.002284039,38
3,6525,85.7309,0.268675,-0.000282722,0,0,0,0,-0.002284039,38
3,6535,85.8761,0.238618,-0.000339647,0,0,0,0,-0.002284039,38
3,6546,86.0358,0.207027,-0.000414483,0,0,0,0,-0.002284039,38
3,6556,86.181,0.178197,-0.000487847,0,0,0,0,-0.002284039,38
3,6566,86.3261,0.14906,-0.000564217,0,0,0,0,-0.002284039,38
3,6576,86.4713,0.119922,-0.00064758,0,0,0,0,-0.002284039,38
3,6586,86.6165,0.0913988,-0.00074137,0,0,0,0,-0.002284039,38
3,6596,86.7616,0.061955,-0.000838106,0,0,0,0,-0.002284039,38
3,6606,86.9068,0.0328179,-0.00094349,0,0,0,0,-0.002284039,38
3,6616,87.052,0.00398748,-0.00104084,0,0,0,0,-0.002284039,38
3,6626,87.1972,-0.025763,-0.00114015,0,0,0,0,-0.002284039,38
3,6636,87.3423,-0.0542867,-0.00122633,0,0,0,0,-0.002284039,38
3,6646,87.4875,-0.0831171,-0.00130436,0,0,0,0,-0.002284039,38
3,6656,87.6327,-0.112254,-0.00138404,0,0,0,0,-0.002284039,38
3,6666,87.7778,-0.141085,-0.001456,0,0,0,0,-0.002284039,38
3,6676,87.923,-0.170528,-0.00152777,0,0,0,0,-0.002284039,38
3,6686,88.0682,-0.199359,-0.00159224,0,0,0,0,-0.002284039,38
3,6696,88.2133,-0.228496,-0.00165247,0,0,0,0,-0.002284039,38
3,6706,88.3585,-0.25702,-0.00171572,0,0,0,0,-0.002284039,38
3,6716,88.5037,-0.286157,-0.0017746,0,0,0,0,-0.002284039,38
3,6727,88.6634,-0.318361,-0.00184514,0,0,0,0,-0.002284039,38
3,6737,88.8085,-0.346885,-0.00191017,0,0,0,0,-0.002284039,38
3,6747,88.9537,-0.376328,-0.00197948,0,0,0,0,-0.002284039,38
3,6757,89.0989,-0.405159,-0.00204696,0,0,0,0,-0.002284039,38
3,6767,89.2441,-0.433989,-0.00212363,0,0,0,0,-0.002284039,38
3,6777,89.3892,-0.463126,-0.00220644,0,0,0,0,-0.002284039,38
3,6787,89.5344,-0.492263,-0.00229478,0,0,0,0,-0.002284039,38
3,6797,89.6796,-0.521401,-0.00241132,0,0,0,0,-0.002284039,38
3,6807,89.8247,-0.550844,-0.0025199,0,0,0,0,-0.002284039,38
3,6817,89.9699,-0.579368,-0.00262418,0,0,0,0,-0.002284039,38
3,6827,90.1151,-0.608505,-0.00272846,0,0,0,0,-0.002284039,38
3,6837,90.2602,-0.637335,-0.00284685,0,0,0,0,-0.002284039,38
3,6847,90.4054,-0.666473,-0.0029726,0,0,0,0,-0.002284039,38
3,6857,90.5506,-0.695916,-0.00311123,0,0,0,0,-0.002284039,38
3,6867,90.6958,-0.724133,-0.00327317,0,0,0,0,-0.002284039,38
3,6877,90.8409,-0.753577,-0.0034713,0,0,0,0,-0.002284039,38
3,6887,90.9861,-0.782408,-0.00371789,0,0,0,0,-0.002284039,38
3,6897,91.1313,-0.811545,-0.0040111,0,0,0,0,-0.002284039,38
3,6907,91.2764,-0.840375,-0.00437793,0,0,0,0,-0.002284039,38
3,6917,91.4216,-0.869205,-0.00482388,0,0,0,0,-0.002284039,38
3,6927,91.5668,-0.898343,-0.00538086,0,0,0,0,-0.002284039,38
3,6937,91.7119,-0.92748,-0.00607647,0,0,0,0,-0.002284039,38
3,6947,91.8571,-0.956003,-0.00693524,0,0,0,0,-0.002284039,38
3,6957,92.0023,-0.984527,-0.00803325,0,0,0,0,-0.002284039,38
3,6967,92.1475,-1.01397,-0.00944103,0,0,0,0,-0.002284039,38
3,6977,92.2926,-1.04249,-0.0112684,0,0,0,0,-0.002284039,38
3,6987,92.4378,-1.07194,-0.0136644,0,0,0,0,-0.002284039,38
4,6997,92.5759,-1.09034,-0.0200991,0,0,0,0,-0.002284039,38
4,7007,92.6507,-1.0747,-0.0208683,0,0,0,0,-0.002284039,38
4,7017,92.7254,-1.06028,-0.0169118,0,0,0,0,-0.002284039,38
4,7027,92.8001,-1.04648,-0.0129755,0,0,0,0,-0.002284039,38
4,7037,92.8748,-1.03207,-0.00850067,0,0,0,0,-0.002284039,38
4,7047,92.9496,-1.01704,-0.00438958,0,0,0,0,-0.002284039,38
4,7058,93.0318,-1.00048,-0.01231,0,0,0,0,-0.002284039,38
4,7068,93.1065,-0.986061,-0.0119499,0,0,0,0,-0.002284039,38
4,7078,93.1812,-0.970725,-0.011196,0,0,0,0,-0.002284039,38
4,7088,93.256,-0.955697,-0.0103912,0,0,0,0,-0.002284039,38
4,7098,93.3307,-0.941281,-0.00958764,0,0,0,0,-0.002284039,38
4,7108,93.4054,-0.926866,-0.00881719,0,0,0,0,-0.002284039,38
4,7119,93.4876,-0.909691,-0.00796148,0,0,0,0,-0.002284039,38
4,7129,93.5624,-0.894969,-0.00724379,0,0,0,0,-0.002284039,38
4,7139,93.6371,-0.880247,-0.00654082,0,0,0,0,-0.002284039,38
4,7149,93.7118,-0.864912,-0.0059041,0,0,0,0,-0.002284039,38
4,7159,93.7865,-0.850496,-0.00531461,0,0,0,0,-0.002284039,38
4,7169,93.8613,-0.835161,-0.00478216,0,0,0,0,-0.002284039,38
4,7180,93.9435,-0.819212,-0.00426812,0,0,0,0,-0.002284039,38
4,7190,94.0182,-0.80449,-0.0038553,0,0,0,0,-0.002284039,38
4,7200,94.0929,-0.789769,-0.00349707,0,0,0,0,-0.002284039,38
4,7210,94.1677,-0.774127,-0.00318606,0,0,0,0,-0.002284039,38
4,7220,94.2424,-0.759405,-0.002918,0,0,0,0,-0.002284039,38
4,7230,94.3171,-0.744376,-0.00269595,0,0,0,0,-0.002284039,38
4,7240,94.3919,-0.730268,-0.0025015,0,0,0,0,-0.002284039,38
4,7250,94.4666,-0.714625,-0.00233956,0,0,0,0,-0.002284039,38
4,7260,94.5413,-0.699597,-0.0022046,0,0,0,0,-0.002284039,38
4,7270,94.6161,-0.685182,-0.00208438,0,0,0,0,-0.002284039,38
4,7280,94.6908,-0.670153,-0.00198255,0,0,0,0,-0.002284039,38
4,7290,94.7655,-0.655431,-0.0018936,0,0,0,0,-0.002284039,38
4,7300,94.8402,-0.639789,-0.00181079,0,0,0,0,-0.002284039,38
4,7310,94.915,-0.625067,-0.00173841,0,0,0,0,-0.002284039,38
4,7320,94.9897,-0.610345,-0.00167216,0,0,0,0,-0.002284039,38
4,7330,95.0644,-0.595317,-0.00160837,0,0,0,0,-0.002284039,38
4,7340,95.1392,-0.580595,-0.00154273,0,0,0,0,-0.002284039,38
4,7350,95.2139,-0.565873,-0.00147771,0,0,0,0,-0.002284039,38
4,7360,95.2886,-0.551151,-0.00141269,0,0,0,0,-0.002284039,38
4,7370,95.3634,-0.536122,-0.00134951,0,0,0,0,-0.002284039,38
4,7380,95.4381,-0.52048,-0.00128749,0,0,0,0,-0.002284039,38
4,7391,95.5203,-0.504225,-0.00121431,0,0,0,0,-0.002284039,38
4,7401,95.595,-0.489503,-0.00114812,0,0,0,0,-0.002284039,38
4,7411,95.6697,-0.474781,-0.00107047,0,0,0,0,-0.002284039,38
4,7421,95.7445,-0.459139,-0.000995814,0,0,0,0,-0.002284039,38
4,7431,95.8192,-0.444417,-0.000921039,0,0,0,0,-0.002284039,38
4,7441,95.8939,-0.429695,-0.000846141,0,0,0,0,-0.002284039,38
4,7452,95.9761,-0.413133,-0.000764251,0,0,0,0,-0.002284039,38
4,7462,96.0509,-0.397798,-0.000696714,0,0,0,0,-0.002284039,38
4,7472,96.1256,-0.383689,-0.000625313,0,0,0,0,-0.002284039,38
4,7482,96.2003,-0.368967,-0.000557224,0,0,0,0,-0.002284039,38
4,7492,96.2751,-0.353632,-0.000497048,0,0,0,0,-0.002284039,38
4,7502,96.3498,-0.338297,-0.000427549,0,0,0,0,-0.002284039,38
4,7513,96.43199,-0.321735,-0.000348541,0,0,0,0,-0.002284039,38
4,7523,96.50672,-0.307013,-0.000282783,0,0,0,0,-0.002284039,38
4,7533,96.58145,-0.291677,-0.000222485,0,0,0,0,-0.002284039,38
4,7543,96.65618,-0.277262,-0.00017378,0,0,0,0,-0.002284039,38
4,7553,96.73091,-0.262234,-0.000147832,0,0,0,0,-0.002284039,38
4,7563,96.80564,-0.247205,-0.000134767,0,0,0,0,-0.002284039,38
4,7574,96.8878,-0.231256,-0.000126933,0,0,0,0,-0.002284039,38
4,7584,96.9626,-0.216534,-0.000102888,0,0,0,0,-0.002284039,38
4,7594,97.0373,-0.201199,-3.46517e-05,0,0,0,0,-0.002284039,38
4,7604,97.112,-0.186784,5.67959e-05,0,0,0,0,-0.002284039,38
4,7614,97.1868,-0.171449,0.000167652,0,0,0,0,-0.002284039,38
4,7624,97.2615,-0.156113,0.000278305,0,0,0,0,-0.002284039,38
4,7634,97.3362,-0.141391,0.000387738,0,0,0,0,-0.002284039,38
4,7644,97.411,-0.126669,0.000475947,0,0,0,0,-0.002284039,38
4,7654,97.4857,-0.111027,0.000563481,0,0,0,0,-0.002284039,38
4,7664,97.5604,-0.0963055,0.000632919,0,0,0,0,-0.002284039,38
4,7674,97.6351,-0.0809702,0.000680152,0,0,0,0,-0.002284039,38
4,7684,97.7099,-0.0668617,0.000742781,0,0,0,0,-0.002284039,38
4,7694,97.7846,-0.0518331,0.000782469,0,0,0,0,-0.002284039,38
4,7704,97.8593,-0.0364978,0.000837922,0,0,0,0,-0.002284039,38
4,7714,97.9341,-0.0217759,0.000896932,0,0,0,0,-0.002284039,38
4,7724,98.0088,-0.00674725,0.000962506,0,0,0,0,-0.002284039,38
4,7734,98.0835,0.00797466,0.00102483,0,0,0,0,-0.002284039,38
4,7744,98.1583,0.0226966,0.00106789,0,0,0,0,-0.002284039,38
4,7754,98.233,0.0383386,0.00106304,0,0,0,0,-0.002284039,38
4,7764,98.3077,0.0527538,0.00101066,0,0,0,0,-0.002284039,38
4,7775,98.3899,0.0690092,0.000932326,0,0,0,0,-0.002284039,38
4,7785,98.4646,0.0843445,0.000901594,0,0,0,0,-0.002284039,38
4,7795,98.5394,0.0990664,0.000896257,0,0,0,0,-0.002284039,38
4,7805,98.6141,0.113482,0.000912881,0,0,0,0,-0.002284039,38
4,7815,98.6888,0.129124,0.000936006,0,0,0,0,-0.002284039,38
4,7825,98.7636,0.144152,0.000966616,0,0,0,0,-0.002284039,38
4,7836,98.8458,0.160408,0.00100643,0,0,0,0,-0.002284039,38
4,7846,98.9205,0.175436,0.00104648,0,0,0,0,-0.002284039,38
4,7856,98.9952,0.190158,0.00109292,0,0,0,0,-0.002284039,38
4,7866,99.07,0.205187,0.0011407,0,0,0,0,-0.002284039,38
4,7876,99.1447,0.220215,0.00118235,0,0,0,0,-0.002284039,38
4,7886,99.2194,0.235244,0.00121738,0,0,0,0,-0.002284039,38
4,7897,99.3016,0.251193,0.00126492,0,0,0,0,-0.002284039,38
4,7907,99.3764,0.266835,0.00130295,0,0,0,0,-0.002284039,38
4,7917,99.4511,0.28125,0.00134337,0,0,0,0,-0.002284039,38
4,7927,99.5258,0.296585,0.00138091,0,0,0,0,-0.002284039,38
4,7937,99.6005,0.311001,0.00142318,0,0,0,0,-0.002284039,38
4,7947,99.6753,0.326336,0.00145968,0,0,0,0,-0.002284039,38
4,7957,99.75,0.340751,0.00149955,0,0,0,0,-0.002284039,38
4,7967,99.8247,0.355473,0.00152065,0,0,0,0,-0.002284039,38
4,7977,99.8995,0.370502,0.00155034,0,0,0,0,-0.002284039,38
4,7987,99.9742,0.385837,0.00157573,0,0,0,0,-0.002284039,38
4,7996,100.041,0.399332,0.00159598,0,0,0,0,-0.002284039,38