File: CV02.11.25/scan1652secondelectrode-1.108CV_650_FLiNaK_Ni_02_11_25_200mVperS_sh15.csv
Segment,Point,Elapsed Time (s),Potential (V),Current (A),Frequency (Hz),|Z| (ohms),Zre (ohms),Zim (ohms),Phase of Z (deg),ActionId
0,0,0.0085,-0.00153353,-0.000933001,0,0,0,0,-0.002284039,38
0,8,0.0765,-0.0150286,-0.00156874,0,0,0,0,-0.002284039,38
0,16,0.1445,-0.0288304,-0.00210278,0,0,0,0,-0.002284039,38
0,24,0.2125,-0.0426322,-0.00258308,0,0,0,0,-0.002284039,38
0,32,0.2805,-0.0555138,-0.00303946,0,0,0,0,-0.002284039,38
0,40,0.3485,-0.0690089,-0.00346946,0,0,0,0,-0.002284039,38
0,48,0.4165,-0.082504,-0.00388168,0,0,0,0,-0.002284039,38
0,56,0.4845,-0.0963058,-0.00429082,0,0,0,0,-0.002284039,38
0,64,0.5525,-0.109801,-0.00468341,0,0,0,0,-0.002284039,38
0,72,0.6205,-0.123603,-0.00507292,0,0,0,0,-0.002284039,38
0,80,0.6885,-0.137098,-0.00545815,0,0,0,0,-0.002284039,38
0,88,0.7565,-0.150286,-0.00583355,0,0,0,0,-0.002284039,38
0,96,0.8245,-0.163781,-0.00620958,0,0,0,0,-0.002284039,38
0,104,0.8925,-0.177583,-0.00657946,0,0,0,0,-0.002284039,38
0,112,0.9605,-0.191385,-0.00694506,0,0,0,0,-0.002284039,38
0,120,1.0285,-0.20488,-0.00730329,0,0,0,0,-0.002284039,38
0,128,1.0965,-0.218375,-0.00766214,0,0,0,0,-0.002284039,38
0,136,1.1645,-0.23187,-0.00801914,0,0,0,0,-0.002284039,38
0,144,1.2325,-0.245365,-0.00836388,0,0,0,0,-0.002284039,38
0,152,1.3005,-0.259167,-0.00871353,0,0,0,0,-0.002284039,38
0,160,1.3685,-0.272662,-0.00905949,0,0,0,0,-0.002284039,38
0,168,1.4365,-0.286157,-0.00940239,0,0,0,0,-0.002284039,38
0,176,1.5045,-0.299345,-0.00974651,0,0,0,0,-0.002284039,38
0,184,1.5725,-0.313761,-0.0100808,0,0,0,0,-0.002284039,38
0,192,1.6405,-0.326336,-0.010417,0,0,0,0,-0.002284039,38
0,200,1.7085,-0.340137,-0.010758,0,0,0,0,-0.002284039,38
0,208,1.7765,-0.353632,-0.0110905,0,0,0,0,-0.002284039,38
0,216,1.8445,-0.367127,-0.0114224,0,0,0,0,-0.002284039,38
0,224,1.9125,-0.380929,-0.0117689,0,0,0,0,-0.002284039,38
0,232,1.9805,-0.394118,-0.0121051,0,0,0,0,-0.002284039,38
0,240,2.0485,-0.407919,-0.0124339,0,0,0,0,-0.002284039,38
0,248,2.1165,-0.422028,-0.0127706,0,0,0,0,-0.002284039,38
0,256,2.1845,-0.43491,-0.0131062,0,0,0,0,-0.002284039,38
0,264,2.2525,-0.448711,-0.0134331,0,0,0,0,-0.002284039,38
0,272,2.3205,-0.4619,-0.0137668,0,0,0,0,-0.002284039,38
0,280,2.3885,-0.476008,-0.014103,0,0,0,0,-0.002284039,38
0,288,2.4565,-0.489197,-0.0144367,0,0,0,0,-0.002284039,38
0,296,2.5245,-0.502998,-0.014771,0,0,0,0,-0.002284039,38
0,304,2.5925,-0.5168,-0.015109,0,0,0,0,-0.002284039,38
0,312,2.6605,-0.529682,-0.015447,0,0,0,0,-0.002284039,38
0,320,2.7285,-0.54379,-0.0157813,0,0,0,0,-0.002284039,38
0,328,2.7965,-0.556979,-0.0161113,0,0,0,0,-0.002284039,38
0,336,2.8645,-0.571087,-0.0164566,0,0,0,0,-0.002284039,38
0,344,2.9325,-0.584276,-0.0167989,0,0,0,0,-0.002284039,38
0,352,3.0005,-0.597771,-0.017148,0,0,0,0,-0.002284039,38
0,360,3.0685,-0.611266,-0.0174675,0,0,0,0,-0.002284039,38
0,368,3.1365,-0.625068,-0.0177939,0,0,0,0,-0.002284039,38
0,376,3.2045,-0.637643,-0.0181079,0,0,0,0,-0.002284039,38
0,384,3.2725,-0.651138,-0.0185067,0,0,0,0,-0.002284039,38
0,392,3.3405,-0.664939,-0.0188563,0,0,0,0,-0.002284039,38
0,400,3.4085,-0.678128,-0.0192121,0,0,0,0,-0.002284039,38
0,408,3.4765,-0.691316,-0.0195801,0,0,0,0,-0.002284039,38
0,416,3.5445,-0.704811,-0.0199482,0,0,0,0,-0.002284039,38
0,424,3.6125,-0.718613,-0.020304,0,0,0,0,-0.002284039,38
0,432,3.6805,-0.732415,-0.0206843,0,0,0,0,-0.002284039,38
0,440,3.7485,-0.746217,-0.0210217,0,0,0,0,-0.002284039,38
0,448,3.8165,-0.759098,-0.0213774,0,0,0,0,-0.002284039,38
0,456,3.8845,-0.7729,-0.0217271,0,0,0,0,-0.002284039,38
0,464,3.9525,-0.786702,-0.0220583,0,0,0,0,-0.002284039,38
0,472,4.0205,-0.800197,-0.0224018,0,0,0,0,-0.002284039,38
0,480,4.0885,-0.813385,-0.0227208,0,0,0,0,-0.002284039,38
0,488,4.1565,-0.827187,-0.0230827,0,0,0,0,-0.002284039,38
0,496,4.2245,-0.840375,-0.0233956,0,0,0,0,-0.002284039,38
0,504,4.2925,-0.854177,-0.0237023,0,0,0,0,-0.002284039,38
0,512,4.3605,-0.867672,-0.0240028,0,0,0,0,-0.002284039,38
0,520,4.4285,-0.881167,-0.0243402,0,0,0,0,-0.002284039,38
0,528,4.4965,-0.894969,-0.0246531,0,0,0,0,-0.002284039,38
0,536,4.5645,-0.908157,-0.0249904,0,0,0,0,-0.002284039,38
0,544,4.6325,-0.921959,-0.0253217,0,0,0,0,-0.002284039,38
0,552,4.7005,-0.935148,-0.0256406,0,0,0,0,-0.002284039,38
0,560,4.7685,-0.948643,-0.0259842,0,0,0,0,-0.002284039,38
0,568,4.8365,-0.962444,-0.0263093,0,0,0,0,-0.002284039,38
0,576,4.9045,-0.97594,-0.0266466,0,0,0,0,-0.002284039,38
0,584,4.9725,-0.989741,-0.0269595,0,0,0,0,-0.002284039,38
0,592,5.0405,-1.00324,-0.0272662,0,0,0,0,-0.002284039,38
0,600,5.1085,-1.01612,-0.0275668,0,0,0,0,-0.002284039,38
0,608,5.1765,-1.02992,-0.0279041,0,0,0,0,-0.002284039,38
0,616,5.2445,-1.04341,-0.0282477,0,0,0,0,-0.002284039,38
0,624,5.3125,-1.05691,-0.0286586,0,0,0,0,-0.002284039,38
0,632,5.3805,-1.07071,-0.0290022,0,0,0,0,-0.002284039,38
0,640,5.4485,-1.08451,-0.0293702,0,0,0,0,-0.002284039,38
0,648,5.5165,-1.0977,-0.0297137,0,0,0,0,-0.002284039,38
0,656,5.5845,-1.1112,-0.0300695,0,0,0,0,-0.002284039,38
0,664,5.6525,-1.125,-0.0304314,0,0,0,0,-0.002284039,38
0,672,5.7205,-1.13849,-0.0307872,0,0,0,0,-0.002284039,38
0,680,5.7885,-1.15168,-0.0311491,0,0,0,0,-0.002284039,38
0,689,5.865,-1.16702,-0.0315601,0,0,0,0,-0.002284039,38
0,697,5.933,-1.18051,-0.0319465,0,0,0,0,-0.002284039,38
0,705,6.001,-1.19462,-0.0322962,0,0,0,0,-0.002284039,38
0,713,6.069,-1.20781,-0.0326704,0,0,0,0,-0.002284039,38
0,721,6.137,-1.2213,-0.0330139,0,0,0,0,-0.002284039,38
0,729,6.205,-1.2348,-0.0333881,0,0,0,0,-0.002284039,38
0,737,6.273,-1.2486,-0.0337561,0,0,0,0,-0.002284039,38
0,745,6.341,-1.2621,-0.0340996,0,0,0,0,-0.002284039,38
0,753,6.409,-1.27529,-0.0344615,0,0,0,0,-0.002284039,38
0,762,6.4855,-1.29062,-0.0348664,0,0,0,0,-0.002284039,38
0,770,6.5535,-1.30412,-0.0352467,0,0,0,0,-0.002284039,38
0,778,6.6215,-1.31792,-0.0356147,0,0,0,0,-0.002284039,38
0,786,6.6895,-1.33141,-0.0360196,0,0,0,0,-0.002284039,38
0,794,6.7575,-1.34491,-0.0364183,0,0,0,0,-0.002284039,38
0,802,6.8255,-1.3584,-0.0370011,0,0,0,0,-0.002284039,38
0,810,6.8935,-1.3719,-0.0374366,0,0,0,0,-0.002284039,38
0,818,6.9615,-1.38539,-0.037866,0,0,0,0,-0.002284039,38
0,826,7.0295,-1.3995,-0.038277,0,0,0,0,-0.002284039,38
0,835,7.106,-1.41422,-0.0388229,0,0,0,0,-0.002284039,38
0,843,7.174,-1.42772,-0.0392584,0,0,0,0,-0.002284039,38
0,851,7.242,-1.44121,-0.0397307,0,0,0,0,-0.002284039,38
0,859,7.31,-1.4544,-0.0402153,0,0,0,0,-0.002284039,38
0,867,7.378,-1.4679,-0.0406447,0,0,0,0,-0.002284039,38
0,875,7.446,-1.48139,-0.0411661,0,0,0,0,-0.002284039,38
0,883,7.514,-1.49489,-0.0416385,0,0,0,0,-0.002284039,38
0,891,7.582,-1.50838,-0.0422764,0,0,0,0,-0.002284039,38
0,900,7.6585,-1.52402,-0.0429818,0,0,0,0,-0.002284039,38
0,908,7.7265,-1.53721,-0.0435952,0,0,0,0,-0.002284039,38
0,916,7.7945,-1.55132,-0.0442761,0,0,0,0,-0.002284039,38
0,924,7.8625,-1.56359,-0.0451104,0,0,0,0,-0.002284039,38
0,932,7.9305,-1.578,-0.0458894,0,0,0,0,-0.002284039,38
0,940,7.9985,-1.59058,-0.0466807,0,0,0,0,-0.002284039,38
0,948,8.0665,-1.60407,-0.047607,0,0,0,0,-0.002284039,38
0,956,8.1345,-1.61788,-0.0486498,0,0,0,0,-0.002284039,38
0,964,8.2025,-1.63168,-0.0497048,0,0,0,0,-0.002284039,38
0,973,8.279,-1.6464,-0.0510053,0,0,0,0,-0.002284039,38
0,981,8.347,-1.65989,-0.0523609,0,0,0,0,-0.002284039,38
0,989,8.415,-1.67278,-0.0549066,0,0,0,0,-0.002284039,38
0,997,8.483,-1.68535,-0.0634391,0,0,0,0,-0.002284039,38
1,1005,8.593048,-1.6694,-0.0682912,0,0,0,0,-0.002284039,38
1,1013,8.717112,-1.6464,-0.0589122,0,0,0,0,-0.002284039,38
1,1021,8.841176,-1.6234,-0.0494411,0,0,0,0,-0.002284039,38
1,1029,8.96524,-1.60009,-0.0400804,0,0,0,0,-0.002284039,38
1,1037,9.089304,-1.57647,-0.0308301,0,0,0,0,-0.002284039,38
1,1045,9.213368,-1.55377,-0.0218252,0,0,0,0,-0.002284039,38
1,1053,9.337432,-1.52985,-0.0147955,0,0,0,0,-0.002284039,38
1,1061,9.461496,-1.5001,-0.0420126,0,0,0,0,-0.002284039,38
1,1069,9.58556,-1.47618,-0.0413133,0,0,0,0,-0.002284039,38
1,1077,9.709624,-1.45103,-0.0403135,0,0,0,0,-0.002284039,38
1,1085,9.833688,-1.42649,-0.0392891,0,0,0,0,-0.002284039,38
1,1093,9.957752,-1.40195,-0.0383751,0,0,0,0,-0.002284039,38
1,1101,10.0818,-1.37711,-0.0374734,0,0,0,0,-0.002284039,38
1,1109,10.20588,-1.35257,-0.0366085,0,0,0,0,-0.002284039,38
1,1117,10.3299,-1.32773,-0.0357865,0,0,0,0,-0.002284039,38
1,1125,10.454,-1.30289,-0.0349829,0,0,0,0,-0.002284039,38
1,1133,10.5781,-1.27866,-0.0342468,0,0,0,0,-0.002284039,38
1,1141,10.7021,-1.25382,-0.0334249,0,0,0,0,-0.002284039,38
1,1149,10.8262,-1.22897,-0.0326949,0,0,0,0,-0.002284039,38
1,1157,10.9503,-1.20444,-0.0319465,0,0,0,0,-0.002284039,38
1,1165,11.0743,-1.18051,-0.0311982,0,0,0,0,-0.002284039,38
1,1173,11.1984,-1.15506,-0.0304498,0,0,0,0,-0.002284039,38
1,1181,11.3225,-1.13083,-0.0297076,0,0,0,0,-0.002284039,38
1,1189,11.44652,-1.10568,-0.0289899,0,0,0,0,-0.002284039,38
1,1197,11.5706,-1.08114,-0.0281924,0,0,0,0,-0.002284039,38
1,1205,11.6946,-1.0563,-0.0273766,0,0,0,0,-0.002284039,38
1,1213,11.8187,-1.03145,-0.0266098,0,0,0,0,-0.002284039,38
1,1221,11.9428,-1.00692,-0.0258492,0,0,0,0,-0.002284039,38
1,1229,12.06684,-0.98238,-0.0250579,0,0,0,0,-0.002284039,38
1,1237,12.1909,-0.957844,-0.0242789,0,0,0,0,-0.002284039,38
1,1245,12.315,-0.933307,-0.0235366,0,0,0,0,-0.002284039,38
1,1253,12.439,-0.908464,-0.0227699,0,0,0,0,-0.002284039,38
1,1261,12.5631,-0.883621,-0.0219847,0,0,0,0,-0.002284039,38
1,1269,12.68716,-0.859084,-0.0212057,0,0,0,0,-0.002284039,38
1,1277,12.8112,-0.834241,-0.0204266,0,0,0,0,-0.002284039,38
1,1285,12.9353,-0.809705,-0.019666,0,0,0,0,-0.002284039,38
1,1293,13.0594,-0.785782,-0.0189054,0,0,0,0,-0.002284039,38
1,1301,13.1834,-0.760325,-0.0181079,0,0,0,0,-0.002284039,38
1,1309,13.30748,-0.735482,-0.017335,0,0,0,0,-0.002284039,38
1,1317,13.4315,-0.710945,-0.0165989,0,0,0,0,-0.002284039,38
1,1325,13.5556,-0.686102,-0.0158444,0,0,0,0,-0.002284039,38
1,1333,13.6797,-0.661872,-0.0150593,0,0,0,0,-0.002284039,38
1,1341,13.8037,-0.637029,-0.0142496,0,0,0,0,-0.002284039,38
1,1349,13.9278,-0.613413,-0.0134129,0,0,0,0,-0.002284039,38
1,1357,14.0519,-0.588569,-0.0126523,0,0,0,0,-0.002284039,38
1,1365,14.1759,-0.564033,-0.0118849,0,0,0,0,-0.002284039,38
1,1373,14.3,-0.53919,-0.0111807,0,0,0,0,-0.002284039,38
1,1381,14.4241,-0.514347,-0.0105832,0,0,0,0,-0.002284039,38
1,1389,14.54812,-0.48981,-0.0100287,0,0,0,0,-0.002284039,38
1,1397,14.6722,-0.464967,-0.0094852,0,0,0,0,-0.002284039,38
1,1405,14.7962,-0.440124,-0.00890859,0,0,0,0,-0.002284039,38
1,1413,14.9203,-0.41528,-0.00835284,0,0,0,0,-0.002284039,38
1,1421,15.0444,-0.390744,-0.00778482,0,0,0,0,-0.002284039,38
1,1429,15.16844,-0.365901,-0.00720146,0,0,0,0,-0.002284039,38
1,1437,15.2925,-0.341364,-0.00659541,0,0,0,0,-0.002284039,38
1,1445,15.4166,-0.316521,-0.00596851,0,0,0,0,-0.002284039,38
1,1453,15.5406,-0.291984,-0.00533853,0,0,0,0,-0.002284039,38
1,1461,15.6647,-0.267448,-0.00468463,0,0,0,0,-0.002284039,38
1,1469,15.78876,-0.242605,-0.00401724,0,0,0,0,-0.002284039,38
1,1477,15.9128,-0.218068,-0.00332408,0,0,0,0,-0.002284039,38
1,1485,16.0369,-0.193225,-0.00260516,0,0,0,0,-0.002284039,38
1,1493,16.161,-0.167462,-0.00184392,0,0,0,0,-0.002284039,38
1,1501,16.285,-0.143232,-0.00105501,0,0,0,0,-0.002284039,38
1,1509,16.40908,-0.118389,-0.000218375,0,0,0,0,-0.002284039,38
1,1517,16.5331,-0.0935454,0.000736095,0,0,0,0,-0.002284039,38
1,1525,16.6572,-0.0693156,0.00194409,0,0,0,0,-0.002284039,38
1,1533,16.7813,-0.0444724,0.00323023,0,0,0,0,-0.002284039,38
1,1541,16.9053,-0.0196292,0.00423255,0,0,0,0,-0.002284039,38
1,1549,17.0294,0.00429389,0.00511095,0,0,0,0,-0.002284039,38
1,1557,17.1535,0.0294438,0.00598261,0,0,0,0,-0.002284039,38
1,1565,17.2775,0.0539803,0.00687206,0,0,0,0,-0.002284039,38
1,1573,17.4016,0.0788235,0.00777501,0,0,0,0,-0.002284039,38
1,1581,17.5257,0.103973,0.00869574,0,0,0,0,-0.002284039,38
1,1589,17.64972,0.127897,0.00962874,0,0,0,0,-0.002284039,38
1,1597,17.7738,0.153046,0.0106102,0,0,0,0,-0.002284039,38
1,1605,17.8978,0.177583,0.0116346,0,0,0,0,-0.002284039,38
1,1613,18.0219,0.202733,0.012697,0,0,0,0,-0.002284039,38
1,1621,18.146,0.226963,0.0137865,0,0,0,0,-0.002284039,38
1,1629,18.27004,0.252113,0.0149029,0,0,0,0,-0.002284039,38
1,1637,18.3941,0.276342,0.0160739,0,0,0,0,-0.002284039,38
1,1645,18.5182,0.301186,0.0173295,0,0,0,0,-0.002284039,38
1,1653,18.6422,0.324189,0.0185557,0,0,0,0,-0.002284039,38
1,1661,18.7663,0.349339,0.020077,0,0,0,0,-0.002284039,38
1,1669,18.89036,0.373875,0.0216903,0,0,0,0,-0.002284039,38
1,1677,19.0144,0.398412,0.0233342,0,0,0,0,-0.002284039,38
1,1685,19.1385,0.422335,0.0250088,0,0,0,0,-0.002284039,38
1,1693,19.2626,0.447485,0.0266282,0,0,0,0,-0.002284039,38
1,1701,19.3866,0.471408,0.0282722,0,0,0,0,-0.002284039,38
1,1709,19.51068,0.496558,0.0298855,0,0,0,0,-0.002284039,38
1,1717,19.6347,0.520787,0.0313454,0,0,0,0,-0.002284039,38
1,1725,19.7588,0.545937,0.0326704,0,0,0,0,-0.002284039,38
1,1733,19.8829,0.569554,0.0338052,0,0,0,0,-0.002284039,38
1,1741,20.0069,0.59409,0.0348173,0,0,0,0,-0.002284039,38
1,1749,20.131,0.619547,0.0356638,0,0,0,0,-0.002284039,38
1,1757,20.2551,0.644083,0.0364122,0,0,0,0,-0.002284039,38
1,1765,20.3791,0.66862,0.0369765,0,0,0,0,-0.002284039,38
1,1773,20.5032,0.69377,0.037455,0,0,0,0,-0.002284039,38
1,1781,20.6273,0.718306,0.0379212,0,0,0,0,-0.002284039,38
1,1789,20.75132,0.743149,0.0384058,0,0,0,0,-0.002284039,38
1,1797,20.8754,0.767993,0.039013,0,0,0,0,-0.002284039,38
1,1805,20.9994,0.792836,0.0398902,0,0,0,0,-0.002284039,38
1,1813,21.1235,0.817066,0.0410618,0,0,0,0,-0.002284039,38
1,1821,21.2476,0.841295,0.0425708,0,0,0,0,-0.002284039,38
1,1829,21.37164,0.865525,0.0442884,0,0,0,0,-0.002284039,38
1,1837,21.4957,0.890675,0.0462145,0,0,0,0,-0.002284039,38
1,1845,21.6198,0.914905,0.0489135,0,0,0,0,-0.002284039,38
1,1853,21.7438,0.938828,0.0522996,0,0,0,0,-0.002284039,38
1,1861,21.8679,0.963365,0.0561334,0,0,0,0,-0.002284039,38
1,1869,21.99196,0.987594,0.0603721,0,0,0,0,-0.002284039,38
1,1877,22.116,1.01121,0.064942,0,0,0,0,-0.002284039,38
1,1885,22.2401,1.03513,0.0698616,0,0,0,0,-0.002284039,38
1,1893,22.3642,1.05906,0.0750326,0,0,0,0,-0.002284039,38
1,1902,22.5037,1.08605,0.0811361,0,0,0,0,-0.002284039,38
1,1910,22.6278,1.10997,0.0866875,0,0,0,0,-0.002284039,38
1,1918,22.7519,1.13359,0.0924045,0,0,0,0,-0.002284039,38
1,1926,22.8759,1.15751,0.098281,0,0,0,0,-0.002284039,38
1,1934,22.99998,1.18113,0.104348,0,0,0,0,-0.002284039,38
1,1942,23.124,1.20474,0.110727,0,0,0,0,-0.002284039,38
1,1950,23.2481,1.22867,0.11707,0,0,0,0,-0.002284039,38
1,1959,23.38768,1.25596,0.124437,0,0,0,0,-0.002284039,38
1,1967,23.5117,1.27927,0.131178,0,0,0,0,-0.002284039,38
1,1975,23.6358,1.3032,0.138067,0,0,0,0,-0.002284039,38
1,1983,23.7599,1.32743,0.140833,0,0,0,0,-0.002284039,38
1,1991,23.8839,1.35687,0.111825,0,0,0,0,-0.002284039,38
1,1999,24.008,1.38355,0.0895398,0,0,0,0,-0.002284039,38
1,2007,24.1321,1.36055,0.0754804,0,0,0,0,-0.002284039,38
1,2016,24.2716,1.33325,0.0726587,0,0,0,0,-0.002284039,38
1,2024,24.3957,1.30841,0.0729777,0,0,0,0,-0.002284039,38
1,2032,24.5198,1.28357,0.0725667,0,0,0,0,-0.002284039,38
1,2040,24.6438,1.25903,0.0716711,0,0,0,0,-0.002284039,38
1,2048,24.7679,1.23511,0.0668068,0,0,0,0,-0.002284039,38
1,2056,24.892,1.21149,0.0593415,0,0,0,0,-0.002284039,38
1,2064,25.01602,1.18787,0.0531645,0,0,0,0,-0.002284039,38
1,2073,25.1556,1.16119,0.043859,0,0,0,0,-0.002284039,38
1,2081,25.2797,1.13819,0.0344983,0,0,0,0,-0.002284039,38
1,2089,25.40372,1.11549,0.0256038,0,0,0,0,-0.002284039,38
1,2097,25.5278,1.09249,0.0134644,0,0,0,0,-0.002284039,38
1,2105,25.6518,1.06979,0.00111334,0,0,0,0,-0.002284039,38
1,2113,25.7759,1.04648,-0.0104697,0,0,0,0,-0.002284039,38
1,2121,25.9,1.02195,-0.0169584,0,0,0,0,-0.002284039,38
1,2129,26.02404,0.998636,-0.0185803,0,0,0,0,-0.002284039,38
1,2137,26.1481,0.973793,-0.0170467,0,0,0,0,-0.002284039,38
1,2145,26.2722,0.947109,-0.0118106,0,0,0,0,-0.002284039,38
1,2153,26.3962,0.921653,-0.0038326,0,0,0,0,-0.002284039,38
1,2161,26.5203,0.895582,0.00273091,0,0,0,0,-0.002284039,38
1,2169,26.64436,0.870126,0.00723766,0,0,0,0,-0.002284039,38
1,2177,26.7684,0.845589,0.0102115,0,0,0,0,-0.002284039,38
1,2185,26.8925,0.820133,0.0121131,0,0,0,0,-0.002284039,38
1,2193,27.0166,0.795596,0.0133988,0,0,0,0,-0.002284039,38
1,2201,27.1406,0.770446,0.014387,0,0,0,0,-0.002284039,38
1,2209,27.26468,0.745296,0.0151378,0,0,0,0,-0.002284039,38
1,2217,27.3887,0.721067,0.0156837,0,0,0,0,-0.002284039,38
1,2225,27.5128,0.69561,0.0160573,0,0,0,0,-0.002284039,38
1,2233,27.6369,0.671073,0.016215,0,0,0,0,-0.002284039,38
1,2241,27.7609,0.645924,0.0163775,0,0,0,0,-0.002284039,38
1,2249,27.885,0.621387,0.0163959,0,0,0,0,-0.002284039,38
1,2257,28.0091,0.596544,0.0163168,0,0,0,0,-0.002284039,38
1,2265,28.1331,0.572621,0.0161585,0,0,0,0,-0.002284039,38
1,2273,28.2572,0.547164,0.0159316,0,0,0,0,-0.002284039,38
1,2281,28.3813,0.522934,0.0156506,0,0,0,0,-0.002284039,38
1,2289,28.50532,0.497478,0.0153004,0,0,0,0,-0.002284039,38
1,2297,28.6294,0.472634,0.0149102,0,0,0,0,-0.002284039,38
1,2305,28.7534,0.448098,0.0145054,0,0,0,0,-0.002284039,38
1,2313,28.8775,0.423255,0.0140637,0,0,0,0,-0.002284039,38
1,2321,29.0016,0.398105,0.0136061,0,0,0,0,-0.002284039,38
1,2329,29.12564,0.373568,0.013051,0,0,0,0,-0.002284039,38
1,2337,29.2497,0.349339,0.0124161,0,0,0,0,-0.002284039,38
1,2345,29.3738,0.324189,0.0117334,0,0,0,0,-0.002284039,38
1,2353,29.4978,0.299345,0.0110727,0,0,0,0,-0.002284039,38
1,2361,29.6219,0.275116,0.0104256,0,0,0,0,-0.002284039,38
1,2369,29.74596,0.249966,0.00981399,0,0,0,0,-0.002284039,38
1,2377,29.87,0.225429,0.00918033,0,0,0,0,-0.002284039,38
1,2385,29.9941,0.200893,0.0085203,0,0,0,0,-0.002284039,38
1,2393,30.1182,0.175743,0.00778973,0,0,0,0,-0.002284039,38
1,2401,30.2422,0.1509,0.00627276,0,0,0,0,-0.002284039,38
1,2409,30.36628,0.126976,-0.00132209,0,0,0,0,-0.002284039,38
1,2417,30.4903,0.102133,-0.000974406,0,0,0,0,-0.002284039,38
1,2425,30.6144,0.0782101,-0.00176718,0,0,0,0,-0.002284039,38
1,2433,30.7385,0.0527535,-0.00286218,0,0,0,0,-0.002284039,38
1,2441,30.8625,0.028217,-0.00402828,0,0,0,0,-0.002284039,38
1,2449,30.9866,0.00368048,-0.00522628,0,0,0,0,-0.002284039,38
1,2457,31.1107,-0.0211627,-0.00644819,0,0,0,0,-0.002284039,38
1,2465,31.2347,-0.0453925,-0.00765539,0,0,0,0,-0.002284039,38
1,2473,31.3588,-0.0702358,-0.00887117,0,0,0,0,-0.002284039,38
1,2481,31.4829,-0.0947723,-0.0100937,0,0,0,0,-0.002284039,38
1,2489,31.60692,-0.119922,-0.0112641,0,0,0,0,-0.002284039,38
1,2497,31.731,-0.144152,-0.0123842,0,0,0,0,-0.002284039,38
1,2505,31.855,-0.169302,-0.013438,0,0,0,0,-0.002284039,38
1,2513,31.9791,-0.193838,-0.0144446,0,0,0,0,-0.002284039,38
1,2521,32.1032,-0.218682,-0.0154261,0,0,0,0,-0.002284039,38
1,2529,32.22724,-0.242911,-0.016353,0,0,0,0,-0.002284039,38
1,2537,32.3513,-0.268061,-0.0172406,0,0,0,0,-0.002284039,38
1,2545,32.4754,-0.292598,-0.018057,0,0,0,0,-0.002284039,38
1,2553,32.5994,-0.316214,-0.0187582,0,0,0,0,-0.002284039,38
1,2561,32.7235,-0.341057,-0.0194268,0,0,0,0,-0.002284039,38
1,2569,32.84756,-0.365594,-0.0200157,0,0,0,0,-0.002284039,38
1,2577,32.9716,-0.390437,-0.0205677,0,0,0,0,-0.002284039,38
1,2585,33.0957,-0.414667,-0.0210769,0,0,0,0,-0.002284039,38
1,2593,33.2198,-0.439817,-0.0215615,0,0,0,0,-0.002284039,38
1,2601,33.3438,-0.46466,-0.0220092,0,0,0,0,-0.002284039,38
1,2609,33.46788,-0.489503,-0.0224202,0,0,0,0,-0.002284039,38
1,2617,33.5919,-0.513426,-0.0228005,0,0,0,0,-0.002284039,38
1,2625,33.716,-0.53827,-0.0231686,0,0,0,0,-0.002284039,38
1,2633,33.8401,-0.563113,-0.0235121,0,0,0,0,-0.002284039,38
1,2641,33.9641,-0.587956,-0.0238495,0,0,0,0,-0.002284039,38
1,2649,34.0882,-0.612799,-0.0241991,0,0,0,0,-0.002284039,38
1,2657,34.2123,-0.637336,-0.0245549,0,0,0,0,-0.002284039,38
1,2665,34.3363,-0.662179,-0.024923,0,0,0,0,-0.002284039,38
1,2673,34.4604,-0.686715,-0.0253523,0,0,0,0,-0.002284039,38
1,2681,34.5845,-0.711559,-0.0257879,0,0,0,0,-0.002284039,38
1,2689,34.70852,-0.736709,-0.0262234,0,0,0,0,-0.002284039,38
1,2697,34.8326,-0.761245,-0.0266712,0,0,0,0,-0.002284039,38
1,2705,34.9566,-0.786088,-0.0271435,0,0,0,0,-0.002284039,38
1,2713,35.0807,-0.810011,-0.0276281,0,0,0,0,-0.002284039,38
1,2721,35.2048,-0.835161,-0.0281188,0,0,0,0,-0.002284039,38
1,2729,35.32884,-0.860005,-0.0286157,0,0,0,0,-0.002284039,38
1,2737,35.4529,-0.884848,-0.0291248,0,0,0,0,-0.002284039,38
1,2745,35.577,-0.909691,-0.0296278,0,0,0,0,-0.002284039,38
1,2753,35.701,-0.934228,-0.0301186,0,0,0,0,-0.002284039,38
1,2761,35.8251,-0.958764,-0.0306522,0,0,0,0,-0.002284039,38
1,2769,35.94916,-0.983607,-0.0311307,0,0,0,0,-0.002284039,38
1,2777,36.0732,-1.00876,-0.0316828,0,0,0,0,-0.002284039,38
1,2785,36.1973,-1.03329,-0.032198,0,0,0,0,-0.002284039,38
1,2793,36.3214,-1.05814,-0.0327194,0,0,0,0,-0.002284039,38
1,2801,36.4454,-1.08267,-0.0333022,0,0,0,0,-0.002284039,38
1,2809,36.56948,-1.10721,-0.0338911,0,0,0,0,-0.002284039,38
1,2817,36.6935,-1.13205,-0.0344063,0,0,0,0,-0.002284039,38
1,2825,36.8176,-1.15659,-0.0351363,0,0,0,0,-0.002284039,38
1,2833,36.9417,-1.18143,-0.0357497,0,0,0,0,-0.002284039,38
1,2841,37.0657,-1.20597,-0.0364122,0,0,0,0,-0.002284039,38
1,2849,37.1898,-1.23081,-0.0370747,0,0,0,0,-0.002284039,38
1,2857,37.3139,-1.25535,-0.0380071,0,0,0,0,-0.002284039,38
1,2865,37.4379,-1.28019,-0.0387431,0,0,0,0,-0.002284039,38
1,2873,37.562,-1.30473,-0.0396142,0,0,0,0,-0.002284039,38
1,2881,37.6861,-1.32927,-0.0403073,0,0,0,0,-0.002284039,38
1,2889,37.81012,-1.3538,-0.0413256,0,0,0,0,-0.002284039,38
1,2897,37.9342,-1.37895,-0.0423193,0,0,0,0,-0.002284039,38
1,2905,38.0582,-1.40318,-0.0435094,0,0,0,0,-0.002284039,38
1,2913,38.1823,-1.42772,-0.0449386,0,0,0,0,-0.002284039,38
1,2921,38.3064,-1.45225,-0.0464108,0,0,0,0,-0.002284039,38
1,2929,38.43044,-1.4771,-0.0481836,0,0,0,0,-0.002284039,38
1,2937,38.5545,-1.49949,-0.0610652,0,0,0,0,-0.002284039,38
1,2945,38.6786,-1.52126,-0.0744131,0,0,0,0,-0.002284039,38
1,2953,38.8026,-1.54457,-0.0875831,0,0,0,0,-0.002284039,38
1,2961,38.9267,-1.56758,-0.100268,0,0,0,0,-0.002284039,38
1,2969,39.05076,-1.58966,-0.112721,0,0,0,0,-0.002284039,38
1,2977,39.1748,-1.61266,-0.125056,0,0,0,0,-0.002284039,38
1,2985,39.2989,-1.63536,-0.137582,0,0,0,0,-0.002284039,38
1,2993,39.423,-1.65775,-0.150262,0,0,0,0,-0.002284039,38
2,3001,39.547,-1.6648,-0.154396,0,0,0,0,-0.002284039,38
2,3009,39.67108,-1.64241,-0.141968,0,0,0,0,-0.002284039,38
2,3017,39.7951,-1.61941,-0.129639,0,0,0,0,-0.002284039,38
2,3026,39.9347,-1.59365,-0.115536,0,0,0,0,-0.002284039,38
2,3034,40.05878,-1.57095,-0.102293,0,0,0,0,-0.002284039,38
2,3042,40.1828,-1.54856,-0.0893313,0,0,0,0,-0.002284039,38
2,3050,40.3069,-1.5185,-0.0768177,0,0,0,0,-0.002284039,38
2,3058,40.431,-1.50286,-0.0712049,0,0,0,0,-0.002284039,38
2,3066,40.555,-1.47955,-0.0609364,0,0,0,0,-0.002284039,38
2,3074,40.6791,-1.45624,-0.049895,0,0,0,0,-0.002284039,38
2,3083,40.8187,-1.43109,-0.0373814,0,0,0,0,-0.002284039,38
2,3091,40.9427,-1.40809,-0.0259167,0,0,0,0,-0.002284039,38
2,3099,41.0668,-1.38478,-0.0142986,0,0,0,0,-0.002284039,38
2,3107,41.1909,-1.3627,-0.00261375,0,0,0,0,-0.002284039,38
2,3115,41.3149,-1.33939,0.00877671,0,0,0,0,-0.002284039,38
2,3123,41.439,-1.31608,0.0197458,0,0,0,0,-0.002284039,38
2,3131,41.5631,-1.29338,0.030781,0,0,0,0,-0.002284039,38
2,3140,41.7026,-1.26762,0.0425095,0,0,0,0,-0.002284039,38
2,3148,41.8267,-1.244,0.0513242,0,0,0,0,-0.002284039,38
2,3156,41.9508,-1.21701,0.0366575,0,0,0,0,-0.002284039,38
2,3164,42.07482,-1.18941,0.0238127,0,0,0,0,-0.002284039,38
2,3172,42.1989,-1.16395,0.0179975,0,0,0,0,-0.002284039,38
2,3180,42.3229,-1.1388,0.0155255,0,0,0,0,-0.002284039,38
2,3188,42.447,-1.11426,0.0147403,0,0,0,0,-0.002284039,38
2,3197,42.5866,-1.08666,0.0154457,0,0,0,0,-0.002284039,38
2,3205,42.7106,-1.06151,0.0181816,0,0,0,0,-0.002284039,38
2,3213,42.8347,-1.0382,0.0216535,0,0,0,0,-0.002284039,38
2,3221,42.9588,-1.01213,0.0175743,0,0,0,0,-0.002284039,38
2,3229,43.08284,-0.979007,-0.0313147,0,0,0,0,-0.002284039,38
2,3237,43.2069,-0.954163,-0.0303701,0,0,0,0,-0.002284039,38
2,3245,43.331,-0.929627,-0.029088,0,0,0,0,-0.002284039,38
2,3254,43.47054,-0.901717,-0.0276649,0,0,0,0,-0.002284039,38
2,3262,43.5946,-0.87718,-0.0264872,0,0,0,0,-0.002284039,38
2,3270,43.7187,-0.85295,-0.0254076,0,0,0,0,-0.002284039,38
2,3278,43.8427,-0.828107,-0.0243525,0,0,0,0,-0.002284039,38
2,3286,43.9668,-0.803877,-0.0233465,0,0,0,0,-0.002284039,38
2,3294,44.09086,-0.779034,-0.022408,0,0,0,0,-0.002284039,38
2,3302,44.2149,-0.754191,-0.0214756,0,0,0,0,-0.002284039,38
2,3310,44.339,-0.729654,-0.0205923,0,0,0,0,-0.002284039,38
2,3318,44.4631,-0.704811,-0.0197028,0,0,0,0,-0.002284039,38
2,3326,44.5871,-0.680581,-0.0188502,0,0,0,0,-0.002284039,38
2,3334,44.71118,-0.655431,-0.0180221,0,0,0,0,-0.002284039,38
2,3342,44.8352,-0.630895,-0.0172308,0,0,0,0,-0.002284039,38
2,3350,44.9593,-0.606665,-0.0163904,0,0,0,0,-0.002284039,38
2,3358,45.0834,-0.581515,-0.0155807,0,0,0,0,-0.002284039,38
2,3366,45.2074,-0.557285,-0.0148201,0,0,0,0,-0.002284039,38
2,3374,45.3315,-0.532749,-0.0140472,0,0,0,0,-0.002284039,38
2,3382,45.4556,-0.508212,-0.0133141,0,0,0,0,-0.002284039,38
2,3390,45.5796,-0.483676,-0.012548,0,0,0,0,-0.002284039,38
2,3398,45.7037,-0.459446,-0.0117229,0,0,0,0,-0.002284039,38
2,3406,45.8278,-0.433989,-0.010866,0,0,0,0,-0.002284039,38
2,3414,45.95182,-0.409453,-0.0100391,0,0,0,0,-0.002284039,38
2,3422,46.0759,-0.385223,-0.00929443,0,0,0,0,-0.002284039,38
2,3430,46.1999,-0.36038,-0.00860189,0,0,0,0,-0.002284039,38
2,3438,46.324,-0.33523,-0.0079486,0,0,0,0,-0.002284039,38
2,3446,46.4481,-0.311,-0.00727323,0,0,0,0,-0.002284039,38
2,3454,46.57214,-0.286157,-0.0065856,0,0,0,0,-0.002284039,38
2,3462,46.6962,-0.2607,-0.00589674,0,0,0,0,-0.002284039,38
2,3470,46.8203,-0.236777,-0.00519806,0,0,0,0,-0.002284039,38
2,3478,46.9443,-0.212241,-0.00451165,0,0,0,0,-0.002284039,38
2,3486,47.0684,-0.187091,-0.00382156,0,0,0,0,-0.002284039,38
2,3494,47.19246,-0.162861,-0.00307504,0,0,0,0,-0.002284039,38
2,3502,47.3165,-0.137404,-0.0021862,0,0,0,0,-0.002284039,38
2,3510,47.4406,-0.112561,-0.000882578,0,0,0,0,-0.002284039,38
2,3518,47.5647,-0.0886381,0.00086252,0,0,0,0,-0.002284039,38
2,3526,47.6887,-0.0637949,0.00215921,0,0,0,0,-0.002284039,38
2,3534,47.81278,-0.0395651,0.00333267,0,0,0,0,-0.002284039,38
2,3542,47.9368,-0.0141085,0.00446994,0,0,0,0,-0.002284039,38
2,3550,48.0609,0.0101213,0.00554464,0,0,0,0,-0.002284039,38
2,3558,48.185,0.0346578,0.00655247,0,0,0,0,-0.002284039,38
2,3566,48.309,0.059501,0.00750694,0,0,0,0,-0.002284039,38
2,3574,48.4331,0.0843442,0.00839578,0,0,0,0,-0.002284039,38
2,3582,48.5572,0.109494,0.0092245,0,0,0,0,-0.002284039,38
2,3590,48.6812,0.133417,0.0100146,0,0,0,0,-0.002284039,38
2,3598,48.8053,0.15826,0.0107452,0,0,0,0,-0.002284039,38
2,3606,48.9294,0.18341,0.0114414,0,0,0,0,-0.002284039,38
2,3614,49.05342,0.207947,0.0121106,0,0,0,0,-0.002284039,38
2,3622,49.1775,0.232483,0.0127903,0,0,0,0,-0.002284039,38
2,3630,49.3015,0.257327,0.0134601,0,0,0,0,-0.002284039,38
2,3638,49.4256,0.28217,0.014141,0,0,0,0,-0.002284039,38
2,3646,49.5497,0.306706,0.0148403,0,0,0,0,-0.002284039,38
2,3654,49.67374,0.33155,0.0155629,0,0,0,0,-0.002284039,38
2,3662,49.7978,0.356393,0.0163082,0,0,0,0,-0.002284039,38
2,3670,49.9219,0.380623,0.0170952,0,0,0,0,-0.002284039,38
2,3678,50.0459,0.405466,0.0179123,0,0,0,0,-0.002284039,38
2,3686,50.17,0.429389,0.0186968,0,0,0,0,-0.002284039,38
2,3694,50.29406,0.453619,0.0196108,0,0,0,0,-0.002284039,38
2,3702,50.4181,0.478155,0.0205555,0,0,0,0,-0.002284039,38
2,3710,50.5422,0.503612,0.0215124,0,0,0,0,-0.002284039,38
2,3718,50.6663,0.527842,0.0225061,0,0,0,0,-0.002284039,38
2,3726,50.7903,0.552378,0.0234937,0,0,0,0,-0.002284039,38
2,3734,50.91438,0.577221,0.0244997,0,0,0,0,-0.002284039,38
2,3742,51.0384,0.602065,0.0254873,0,0,0,0,-0.002284039,38
2,3750,51.1625,0.626601,0.0265301,0,0,0,0,-0.002284039,38
2,3758,51.2866,0.651138,0.0275545,0,0,0,0,-0.002284039,38
2,3766,51.4106,0.675367,0.0285789,0,0,0,0,-0.002284039,38
2,3774,51.5347,0.700517,0.0295604,0,0,0,0,-0.002284039,38
2,3782,51.6588,0.725054,0.0306216,0,0,0,0,-0.002284039,38
2,3790,51.7828,0.749897,0.031787,0,0,0,0,-0.002284039,38
2,3798,51.9069,0.774433,0.03302,0,0,0,0,-0.002284039,38
2,3806,52.031,0.79897,0.0342407,0,0,0,0,-0.002284039,38
2,3814,52.15502,0.8232,0.0356761,0,0,0,0,-0.002284039,38
2,3822,52.2791,0.847736,0.0372219,0,0,0,0,-0.002284039,38
2,3830,52.4031,0.872273,0.0389394,0,0,0,0,-0.002284039,38
2,3838,52.5272,0.897116,0.0408349,0,0,0,0,-0.002284039,38
2,3846,52.6513,0.921346,0.0428898,0,0,0,0,-0.002284039,38
2,3854,52.77534,0.945882,0.0452085,0,0,0,0,-0.002284039,38
2,3862,52.8994,0.969805,0.0475886,0,0,0,0,-0.002284039,38
2,3870,53.0235,0.994342,0.0505881,0,0,0,0,-0.002284039,38
2,3878,53.1475,1.01857,0.054011,0,0,0,0,-0.002284039,38
2,3886,53.2716,1.0428,0.0579246,0,0,0,0,-0.002284039,38
2,3894,53.39566,1.06703,0.0621264,0,0,0,0,-0.002284039,38
2,3902,53.5197,1.09065,0.0667761,0,0,0,0,-0.002284039,38
2,3910,53.6438,1.11488,0.0716711,0,0,0,0,-0.002284039,38
2,3918,53.7679,1.1388,0.0768729,0,0,0,0,-0.002284039,38
2,3926,53.8919,1.16303,0.0822525,0,0,0,0,-0.002284039,38
2,3934,54.01598,1.18634,0.0879204,0,0,0,0,-0.002284039,38
2,3942,54.14,1.21057,0.0939012,0,0,0,0,-0.002284039,38
2,3950,54.2641,1.23388,0.0999801,0,0,0,0,-0.002284039,38
2,3958,54.3882,1.2578,0.106292,0,0,0,0,-0.002284039,38
2,3966,54.5122,1.28203,0.112653,0,0,0,0,-0.002284039,38
2,3974,54.6363,1.30534,0.119229,0,0,0,0,-0.002284039,38
2,3982,54.7604,1.32957,0.126032,0,0,0,0,-0.002284039,38
2,3990,54.8844,1.35196,0.133025,0,0,0,0,-0.002284039,38
2,3998,55.0085,1.37588,0.13554,0,0,0,0,-0.002284039,38
2,4006,55.1326,1.35779,0.099244,0,0,0,0,-0.002284039,38
2,4014,55.25662,1.33755,0.0705179,0,0,0,0,-0.002284039,38
2,4022,55.3807,1.31608,0.0490546,0,0,0,0,-0.002284039,38
2,4030,55.5047,1.29093,0.0535939,0,0,0,0,-0.002284039,38
2,4038,55.6288,1.26578,0.0527412,0,0,0,0,-0.002284039,38
2,4046,55.7529,1.24124,0.0512936,0,0,0,0,-0.002284039,38
2,4054,55.87694,1.21762,0.0469629,0,0,0,0,-0.002284039,38
2,4062,56.001,1.19401,0.0397737,0,0,0,0,-0.002284039,38
2,4070,56.1251,1.171,0.029315,0,0,0,0,-0.002284039,38
2,4078,56.2491,1.148,0.0169793,0,0,0,0,-0.002284039,38
2,4086,56.3732,1.12531,0.00574032,0,0,0,0,-0.002284039,38
2,4094,56.49726,1.10138,-0.00125682,0,0,0,0,-0.002284039,38
2,4102,56.6213,1.07715,-0.00479811,0,0,0,0,-0.002284039,38
2,4110,56.7454,1.05292,-0.00695365,0,0,0,0,-0.002284039,38
2,4118,56.8695,1.02777,-0.00597587,0,0,0,0,-0.002284039,38
2,4126,56.9935,1.00232,-0.00117039,0,0,0,0,-0.002284039,38
2,4134,57.11758,0.97686,0.00492938,0,0,0,0,-0.002284039,38
2,4142,57.2416,0.951403,0.00970603,0,0,0,0,-0.002284039,38
2,4151,57.3812,0.923186,0.0132583,0,0,0,0,-0.002284039,38
2,4159,57.50528,0.898343,0.0151832,0,0,0,0,-0.002284039,38
2,4167,57.6293,0.873193,0.0163732,0,0,0,0,-0.002284039,38
2,4175,57.7534,0.848963,0.0171694,0,0,0,0,-0.002284039,38
2,4183,57.8775,0.8232,0.0177282,0,0,0,0,-0.002284039,38
2,4191,58.0015,0.79897,0.0181245,0,0,0,0,-0.002284039,38
2,4199,58.1256,0.772287,0.0183042,0,0,0,0,-0.002284039,38
2,4208,58.2652,0.744683,0.0184637,0,0,0,0,-0.002284039,38
2,4216,58.3892,0.719533,0.0184699,0,0,0,0,-0.002284039,38
2,4224,58.5133,0.69561,0.0183778,0,0,0,0,-0.002284039,38
2,4232,58.6374,0.670767,0.0181877,0,0,0,0,-0.002284039,38
2,4240,58.7614,0.645617,0.0179301,0,0,0,0,-0.002284039,38
2,4248,58.8855,0.620774,0.0176295,0,0,0,0,-0.002284039,38
2,4256,59.0096,0.596237,0.0172553,0,0,0,0,-0.002284039,38
2,4265,59.1491,0.568327,0.0167707,0,0,0,0,-0.002284039,38
2,4273,59.2732,0.543177,0.016329,0,0,0,0,-0.002284039,38
2,4281,59.3973,0.51864,0.0158322,0,0,0,0,-0.002284039,38
2,4289,59.52132,0.494104,0.0152924,0,0,0,0,-0.002284039,38
2,4297,59.6454,0.468954,0.0146912,0,0,0,0,-0.002284039,38
2,4305,59.7694,0.444417,0.014084,0,0,0,0,-0.002284039,38
2,4313,59.8935,0.420494,0.0134797,0,0,0,0,-0.002284039,38
2,4322,60.0331,0.392584,0.0127314,0,0,0,0,-0.002284039,38
2,4330,60.1571,0.368354,0.0119628,0,0,0,0,-0.002284039,38
2,4338,60.2812,0.344125,0.00642366,0,0,0,0,-0.002284039,38
2,4346,60.4053,0.319281,0.00593845,0,0,0,0,-0.002284039,38
2,4354,60.52934,0.294131,0.00518824,0,0,0,0,-0.002284039,38
2,4362,60.6534,0.269595,0.00408472,0,0,0,0,-0.002284039,38
2,4370,60.7775,0.245365,0.00290635,0,0,0,0,-0.002284039,38
2,4379,60.91704,0.217455,0.00163781,0,0,0,0,-0.002284039,38
2,4387,61.0411,0.193225,0.000567345,0,0,0,0,-0.002284039,38
2,4395,61.1652,0.168382,-0.000459691,0,0,0,0,-0.002284039,38
2,4403,61.2892,0.143539,-0.00143925,0,0,0,0,-0.002284039,38
2,4411,61.4133,0.118082,-0.00240458,0,0,0,0,-0.002284039,38
2,4419,61.53736,0.0941588,-0.00337745,0,0,0,0,-0.002284039,38
2,4427,61.6614,0.0693156,-0.00437731,0,0,0,0,-0.002284039,38
2,4435,61.7855,0.0444724,-0.00540539,0,0,0,0,-0.002284039,38
2,4443,61.9096,0.0196292,-0.00645065,0,0,0,0,-0.002284039,38
2,4451,62.0336,-0.00429389,-0.0074591,0,0,0,0,-0.002284039,38
2,4459,62.15768,-0.0297505,-0.00843442,0,0,0,0,-0.002284039,38
2,4467,62.2817,-0.0536736,-0.00938031,0,0,0,0,-0.002284039,38
2,4475,62.4058,-0.0788235,-0.0103066,0,0,0,0,-0.002284039,38
2,4483,62.5299,-0.103667,-0.0112028,0,0,0,0,-0.002284039,38
2,4491,62.6539,-0.127897,-0.0120738,0,0,0,0,-0.002284039,38
2,4499,62.778,-0.15274,-0.0129271,0,0,0,0,-0.002284039,38
2,4507,62.9021,-0.177583,-0.0137723,0,0,0,0,-0.002284039,38
2,4515,63.0261,-0.202119,-0.0145919,0,0,0,0,-0.002284039,38
2,4523,63.1502,-0.227269,-0.0153973,0,0,0,0,-0.002284039,38
2,4531,63.2743,-0.251499,-0.0161659,0,0,0,0,-0.002284039,38
2,4539,63.39832,-0.276342,-0.0169014,0,0,0,0,-0.002284039,38
2,4547,63.5224,-0.301492,-0.0175712,0,0,0,0,-0.002284039,38
2,4555,63.6464,-0.324802,-0.0181386,0,0,0,0,-0.002284039,38
2,4563,63.7705,-0.349339,-0.0187091,0,0,0,0,-0.002284039,38
2,4571,63.8946,-0.374488,-0.0192428,0,0,0,0,-0.002284039,38
2,4579,64.01864,-0.399025,-0.019758,0,0,0,0,-0.002284039,38
2,4587,64.1427,-0.423561,-0.0202119,0,0,0,0,-0.002284039,38
2,4595,64.2668,-0.448098,-0.0206413,0,0,0,0,-0.002284039,38
2,4603,64.3908,-0.473248,-0.0210462,0,0,0,0,-0.002284039,38
2,4611,64.5149,-0.498091,-0.0214265,0,0,0,0,-0.002284039,38
2,4619,64.63896,-0.522628,-0.0218068,0,0,0,0,-0.002284039,38
2,4627,64.763,-0.547471,-0.0221687,0,0,0,0,-0.002284039,38
2,4635,64.8871,-0.571701,-0.0225368,0,0,0,0,-0.002284039,38
2,4643,65.0112,-0.596851,-0.0229171,0,0,0,0,-0.002284039,38
2,4651,65.1352,-0.621694,-0.0233097,0,0,0,0,-0.002284039,38
2,4659,65.25928,-0.646844,-0.0237207,0,0,0,0,-0.002284039,38
2,4667,65.3833,-0.670767,-0.0241439,0,0,0,0,-0.002284039,38
2,4675,65.5074,-0.695917,-0.0245856,0,0,0,0,-0.002284039,38
2,4683,65.6315,-0.720453,-0.025064,0,0,0,0,-0.002284039,38
2,4691,65.7555,-0.744683,-0.0255486,0,0,0,0,-0.002284039,38
2,4699,65.8796,-0.77014,-0.0260271,0,0,0,0,-0.002284039,38
2,4707,66.0037,-0.794369,-0.0265424,0,0,0,0,-0.002284039,38
2,4715,66.1277,-0.819213,-0.0270515,0,0,0,0,-0.002284039,38
2,4723,66.2518,-0.843749,-0.0275668,0,0,0,0,-0.002284039,38
2,4731,66.3759,-0.868592,-0.0280882,0,0,0,0,-0.002284039,38
2,4739,66.49992,-0.893129,-0.028628,0,0,0,0,-0.002284039,38
2,4747,66.624,-0.918279,-0.0291432,0,0,0,0,-0.002284039,38
2,4755,66.748,-0.943122,-0.0297137,0,0,0,0,-0.002284039,38
2,4763,66.8721,-0.967659,-0.0302474,0,0,0,0,-0.002284039,38
2,4771,66.9962,-0.992195,-0.0308056,0,0,0,0,-0.002284039,38
2,4779,67.12024,-1.01734,-0.031327,0,0,0,0,-0.002284039,38
2,4787,67.2443,-1.04157,-0.0319159,0,0,0,0,-0.002284039,38
2,4795,67.3684,-1.06611,-0.0324863,0,0,0,0,-0.002284039,38
2,4803,67.4924,-1.09095,-0.0330875,0,0,0,0,-0.002284039,38
2,4811,67.6165,-1.1161,-0.0336641,0,0,0,0,-0.002284039,38
2,4819,67.74056,-1.14095,-0.0342898,0,0,0,0,-0.002284039,38
2,4827,67.8646,-1.16518,-0.0349277,0,0,0,0,-0.002284039,38
2,4835,67.9887,-1.18971,-0.0356147,0,0,0,0,-0.002284039,38
2,4843,68.1128,-1.21456,-0.0362834,0,0,0,0,-0.002284039,38
2,4851,68.2368,-1.23971,-0.0370072,0,0,0,0,-0.002284039,38
2,4859,68.36088,-1.26394,-0.0378292,0,0,0,0,-0.002284039,38
2,4867,68.4849,-1.28847,-0.038645,0,0,0,0,-0.002284039,38
2,4875,68.609,-1.31301,-0.0394915,0,0,0,0,-0.002284039,38
2,4883,68.7331,-1.33785,-0.0403871,0,0,0,0,-0.002284039,38
2,4891,68.8571,-1.363,-0.0413808,0,0,0,0,-0.002284039,38
2,4899,68.9812,-1.38723,-0.042442,0,0,0,0,-0.002284039,38
2,4907,69.1053,-1.41208,-0.0436934,0,0,0,0,-0.002284039,38
2,4915,69.2293,-1.43631,-0.0450736,0,0,0,0,-0.002284039,38
2,4923,69.3534,-1.46084,-0.0465642,0,0,0,0,-0.002284039,38
2,4931,69.4775,-1.48385,-0.0558328,0,0,0,0,-0.002284039,38
2,4939,69.60152,-1.50654,-0.0695058,0,0,0,0,-0.002284039,38
2,4947,69.7256,-1.52924,-0.0827923,0,0,0,0,-0.002284039,38
2,4955,69.8496,-1.55163,-0.0956985,0,0,0,0,-0.002284039,38
2,4963,69.9737,-1.57402,-0.108384,0,0,0,0,-0.002284039,38
2,4971,70.0978,-1.59671,-0.121039,0,0,0,0,-0.002284039,38
2,4979,70.22184,-1.61972,-0.133319,0,0,0,0,-0.002284039,38
2,4987,70.3459,-1.64241,-0.145692,0,0,0,0,-0.002284039,38
2,4995,70.47,-1.66572,-0.157837,0,0,0,0,-0.002284039,38
3,5003,70.563,-1.63137,-0.139183,0,0,0,0,-0.002284039,38
3,5011,70.6457,-1.61604,-0.131092,0,0,0,0,-0.002284039,38
3,5019,70.72842,-1.6007,-0.122376,0,0,0,0,-0.002284039,38
3,5027,70.8111,-1.58598,-0.113267,0,0,0,0,-0.002284039,38
3,5035,70.8938,-1.57095,-0.104059,0,0,0,0,-0.002284039,38
3,5043,70.9765,-1.57187,-0.104728,0,0,0,0,-0.002284039,38
3,5051,71.0592,-1.54181,-0.0864973,0,0,0,0,-0.002284039,38
3,5059,71.14194,-1.52556,-0.0800749,0,0,0,0,-0.002284039,38
3,5067,71.2246,-1.51022,-0.0730697,0,0,0,0,-0.002284039,38
3,5075,71.3073,-1.49458,-0.0658744,0,0,0,0,-0.002284039,38
3,5083,71.3901,-1.47986,-0.0581945,0,0,0,0,-0.002284039,38
3,5091,71.4728,-1.46483,-0.0502937,0,0,0,0,-0.002284039,38
3,5099,71.55546,-1.44919,-0.0423684,0,0,0,0,-0.002284039,38
3,5107,71.6382,-1.43355,-0.0346271,0,0,0,0,-0.002284039,38
3,5115,71.7209,-1.41944,-0.0267632,0,0,0,0,-0.002284039,38
3,5123,71.8036,-1.40318,-0.018979,0,0,0,0,-0.002284039,38
3,5131,71.8863,-1.38877,-0.0115273,0,0,0,0,-0.002284039,38
3,5139,71.96898,-1.37343,-0.00332224,0,0,0,0,-0.002284039,38
3,5147,72.0517,-1.3581,0.00482633,0,0,0,0,-0.002284039,38
3,5155,72.1344,-1.34215,0.0129878,0,0,0,0,-0.002284039,38
3,5163,72.2171,-1.32773,0.0204818,0,0,0,0,-0.002284039,38
3,5171,72.2998,-1.3127,0.0282108,0,0,0,0,-0.002284039,38
3,5179,72.3825,-1.29706,0.0357129,0,0,0,0,-0.002284039,38
3,5187,72.4652,-1.28173,0.0427917,0,0,0,0,-0.002284039,38
3,5195,72.5479,-1.2667,0.0494227,0,0,0,0,-0.002284039,38
3,5203,72.6306,-1.25106,0.0542563,0,0,0,0,-0.002284039,38
3,5211,72.7133,-1.23173,0.0405159,0,0,0,0,-0.002284039,38
3,5219,72.79602,-1.21364,0.0299591,0,0,0,0,-0.002284039,38
3,5227,72.8787,-1.19554,0.023555,0,0,0,0,-0.002284039,38
3,5235,72.9614,-1.17867,0.019942,0,0,0,0,-0.002284039,38
3,5243,73.0441,-1.1618,0.017654,0,0,0,0,-0.002284039,38
3,5251,73.1268,-1.14524,0.0164149,0,0,0,0,-0.002284039,38
3,5259,73.20954,-1.12868,0.0159426,0,0,0,0,-0.002284039,38
3,5267,73.2922,-1.11212,0.0159181,0,0,0,0,-0.002284039,38
3,5275,73.3749,-1.09586,0.0166419,0,0,0,0,-0.002284039,38
3,5283,73.4577,-1.07899,0.0179362,0,0,0,0,-0.002284039,38
3,5291,73.5404,-1.06335,0.0199666,0,0,0,0,-0.002284039,38
3,5299,73.62306,-1.0471,0.0224632,0,0,0,0,-0.002284039,38
3,5307,73.7058,-1.03115,0.024512,0,0,0,0,-0.002284039,38
3,5315,73.7885,-1.01458,0.0254873,0,0,0,0,-0.002284039,38
3,5323,73.8712,-0.996796,0.016648,0,0,0,0,-0.002284039,38
3,5331,73.9539,-0.972259,-0.0314006,0,0,0,0,-0.002284039,38
3,5339,74.03658,-0.955084,-0.0313883,0,0,0,0,-0.002284039,38
3,5347,74.1193,-0.938521,-0.0307381,0,0,0,0,-0.002284039,38
3,5355,74.202,-0.922266,-0.0299345,0,0,0,0,-0.002284039,38
3,5363,74.2847,-0.905704,-0.0290819,0,0,0,0,-0.002284039,38
3,5371,74.3674,-0.889142,-0.0282293,0,0,0,0,-0.002284039,38
3,5379,74.4501,-0.872886,-0.027395,0,0,0,0,-0.002284039,38
3,5387,74.5328,-0.856631,-0.0265976,0,0,0,0,-0.002284039,38
3,5395,74.6155,-0.839762,-0.0258185,0,0,0,0,-0.002284039,38
3,5403,74.6982,-0.82412,-0.0250518,0,0,0,0,-0.002284039,38
3,5411,74.7809,-0.807558,-0.0243279,0,0,0,0,-0.002284039,38
3,5419,74.86362,-0.790996,-0.0236287,0,0,0,0,-0.002284039,38
3,5427,74.9463,-0.77474,-0.0229416,0,0,0,0,-0.002284039,38
3,5435,75.029,-0.757871,-0.0222669,0,0,0,0,-0.002284039,38
3,5443,75.1117,-0.741923,-0.0216535,0,0,0,0,-0.002284039,38
3,5451,75.1944,-0.725361,-0.0210462,0,0,0,0,-0.002284039,38
3,5459,75.27714,-0.708798,-0.0204205,0,0,0,0,-0.002284039,38
3,5467,75.3598,-0.692236,-0.0198132,0,0,0,0,-0.002284039,38
3,5475,75.4425,-0.676287,-0.0192305,0,0,0,0,-0.002284039,38
3,5483,75.5253,-0.659419,-0.0186416,0,0,0,0,-0.002284039,38
3,5491,75.608,-0.642856,-0.0180773,0,0,0,0,-0.002284039,38
3,5499,75.69066,-0.626908,-0.0175313,0,0,0,0,-0.002284039,38
3,5507,75.7734,-0.610039,-0.016967,0,0,0,0,-0.002284039,38
3,5515,75.8561,-0.59409,-0.0164333,0,0,0,0,-0.002284039,38
3,5523,75.9388,-0.577221,-0.0158813,0,0,0,0,-0.002284039,38
3,5531,76.0215,-0.560966,-0.0153476,0,0,0,0,-0.002284039,38
3,5539,76.10418,-0.54471,-0.0148139,0,0,0,0,-0.002284039,38
3,5547,76.1869,-0.528455,-0.0143293,0,0,0,0,-0.002284039,38
3,5555,76.2696,-0.5122,-0.0138588,0,0,0,0,-0.002284039,38
3,5563,76.3523,-0.496251,-0.0133454,0,0,0,0,-0.002284039,38
3,5571,76.435,-0.479382,-0.0128252,0,0,0,0,-0.002284039,38
3,5579,76.5177,-0.463433,-0.0122775,0,0,0,0,-0.002284039,38
3,5587,76.6004,-0.447178,-0.0117076,0,0,0,0,-0.002284039,38
3,5595,76.6831,-0.429696,-0.0111169,0,0,0,0,-0.002284039,38
3,5603,76.7658,-0.41344,-0.0105636,0,0,0,0,-0.002284039,38
3,5611,76.8485,-0.397185,-0.0100213,0,0,0,0,-0.002284039,38
3,5619,76.93122,-0.380623,-0.00953305,0,0,0,0,-0.002284039,38
3,5627,77.0139,-0.36406,-0.00906317,0,0,0,0,-0.002284039,38
3,5635,77.0966,-0.347805,-0.0086209,0,0,0,0,-0.002284039,38
3,5643,77.1793,-0.330936,-0.00818722,0,0,0,0,-0.002284039,38
3,5651,77.262,-0.314987,-0.00773452,0,0,0,0,-0.002284039,38
3,5659,77.34474,-0.297812,-0.00726955,0,0,0,0,-0.002284039,38
3,5667,77.4274,-0.281556,-0.00680029,0,0,0,0,-0.002284039,38
3,5675,77.5101,-0.265914,-0.00633165,0,0,0,0,-0.002284039,38
3,5683,77.5929,-0.248739,-0.00586484,0,0,0,0,-0.002284039,38
3,5691,77.6756,-0.232483,-0.00541521,0,0,0,0,-0.002284039,38
3,5699,77.75826,-0.215921,-0.00495883,0,0,0,0,-0.002284039,38
3,5707,77.841,-0.199052,-0.00446871,0,0,0,0,-0.002284039,38
3,5715,77.9237,-0.183104,-0.0039516,0,0,0,0,-0.002284039,38
3,5723,78.0064,-0.166235,-0.00337377,0,0,0,0,-0.002284039,38
3,5731,78.0891,-0.149979,-0.00268491,0,0,0,0,-0.002284039,38
3,5739,78.17178,-0.133111,-0.00173841,0,0,0,0,-0.002284039,38
3,5747,78.2545,-0.116855,-0.000545999,0,0,0,0,-0.002284039,38
3,5755,78.3372,-0.1006,0.000461225,0,0,0,0,-0.002284039,38
3,5763,78.4199,-0.0840375,0.0013189,0,0,0,0,-0.002284039,38
3,5771,78.5026,-0.0674754,0.0021083,0,0,0,0,-0.002284039,38
3,5779,78.5853,-0.0515267,0.00287384,0,0,0,0,-0.002284039,38
3,5787,78.668,-0.0352712,0.00362527,0,0,0,0,-0.002284039,38
3,5795,78.7507,-0.0187091,0.00436198,0,0,0,0,-0.002284039,38
3,5803,78.8334,-0.00214694,0.00508274,0,0,0,0,-0.002284039,38
3,5811,78.9161,0.0134951,0.00576669,0,0,0,0,-0.002284039,38
3,5819,78.99882,0.0309773,0.00643163,0,0,0,0,-0.002284039,38
3,5827,79.0815,0.0472328,0.00707572,0,0,0,0,-0.002284039,38
3,5835,79.1642,0.0634882,0.00768361,0,0,0,0,-0.002284039,38
3,5843,79.2469,0.0806638,0.00827494,0,0,0,0,-0.002284039,38
3,5851,79.3296,0.0969192,0.00883437,0,0,0,0,-0.002284039,38
3,5859,79.41234,0.113175,0.00937908,0,0,0,0,-0.002284039,38
3,5867,79.495,0.129123,0.00989987,0,0,0,0,-0.002284039,38
3,5875,79.5777,0.146299,0.0104047,0,0,0,0,-0.002284039,38
3,5883,79.6605,0.162248,0.0108887,0,0,0,0,-0.002284039,38
3,5891,79.7432,0.178503,0.0113635,0,0,0,0,-0.002284039,38
3,5899,79.82586,0.195065,0.0118217,0,0,0,0,-0.002284039,38
3,5907,79.9086,0.212241,0.0122609,0,0,0,0,-0.002284039,38
3,5915,79.9913,0.228496,0.012705,0,0,0,0,-0.002284039,38
3,5923,80.074,0.245365,0.0131467,0,0,0,0,-0.002284039,38
3,5931,80.1567,0.261927,0.0135877,0,0,0,0,-0.002284039,38
3,5939,80.23938,0.278489,0.0140306,0,0,0,0,-0.002284039,38
3,5947,80.3221,0.294438,0.0144778,0,0,0,0,-0.002284039,38
3,5955,80.4048,0.310694,0.0149335,0,0,0,0,-0.002284039,38
3,5963,80.4875,0.327562,0.0153911,0,0,0,0,-0.002284039,38
3,5971,80.5702,0.344125,0.0158671,0,0,0,0,-0.002284039,38
3,5979,80.6529,0.360993,0.016353,0,0,0,0,-0.002284039,38
3,5987,80.7356,0.377556,0.0168566,0,0,0,0,-0.002284039,38
3,5995,80.8183,0.393504,0.0173835,0,0,0,0,-0.002284039,38
3,5997,80.839,0.397798,0.0175197,0,0,0,0,-0.002284039,38