File: CV02.11.25/secondelectrode-1.2CV_650_FLiNaK_Ni_02_11_25_200mVperS_sh15.csv
Segment,Point,Elapsed Time (s),Potential (V),Current (A),Frequency (Hz),|Z| (ohms),Zre (ohms),Zim (ohms),Phase of Z (deg),ActionId
0,0,0.006,-0.00122683,6.37949e-06,0,0,0,0,-0.002284039,38
0,5,0.036,-0.00766766,-0.000145919,0,0,0,0,-0.002284039,38
0,9,0.066,-0.0131884,-0.00020856,0,0,0,0,-0.002284039,38
0,13,0.09,-0.0180957,-0.000240949,0,0,0,0,-0.002284039,38
0,17,0.114,-0.023003,-0.000256836,0,0,0,0,-0.002284039,38
0,21,0.138,-0.0276036,-0.000272478,0,0,0,0,-0.002284039,38
0,25,0.162,-0.0325109,-0.000279164,0,0,0,0,-0.002284039,38
0,29,0.186,-0.0371115,-0.000285973,0,0,0,0,-0.002284039,38
0,33,0.21,-0.0420188,-0.000287752,0,0,0,0,-0.002284039,38
0,37,0.234,-0.0472328,-0.000292107,0,0,0,0,-0.002284039,38
0,41,0.258,-0.0518334,-0.000292107,0,0,0,0,-0.002284039,38
0,45,0.282,-0.0567407,-0.000292352,0,0,0,0,-0.002284039,38
0,49,0.306,-0.0613413,-0.000289899,0,0,0,0,-0.002284039,38
0,53,0.33,-0.0656352,-0.000290942,0,0,0,0,-0.002284039,38
0,57,0.354,-0.0711559,-0.000288549,0,0,0,0,-0.002284039,38
0,61,0.378,-0.0757565,-0.000285912,0,0,0,0,-0.002284039,38
0,65,0.402,-0.0803571,-0.000286709,0,0,0,0,-0.002284039,38
0,69,0.426,-0.0852644,-0.000280391,0,0,0,0,-0.002284039,38
0,73,0.45,-0.0901717,-0.000282661,0,0,0,0,-0.002284039,38
0,77,0.474,-0.0953857,-0.00028309,0,0,0,0,-0.002284039,38
0,81,0.498,-0.0996796,-0.000286402,0,0,0,0,-0.002284039,38
0,85,0.522,-0.104587,-0.000283703,0,0,0,0,-0.002284039,38
0,89,0.546,-0.108881,-0.000284869,0,0,0,0,-0.002284039,38
0,93,0.57,-0.113788,-0.000285237,0,0,0,0,-0.002284039,38
0,97,0.594,-0.118695,-0.000287384,0,0,0,0,-0.002284039,38
0,101,0.618,-0.123909,-0.000290144,0,0,0,0,-0.002284039,38
0,105,0.642,-0.128203,-0.00029131,0,0,0,0,-0.002284039,38
0,109,0.666,-0.133417,-0.000292046,0,0,0,0,-0.002284039,38
0,113,0.69,-0.138631,-0.000296156,0,0,0,0,-0.002284039,38
0,117,0.714,-0.143232,-0.000301186,0,0,0,0,-0.002284039,38
0,122,0.744,-0.149059,-0.000308179,0,0,0,0,-0.002284039,38
0,126,0.768,-0.153967,-0.000310325,0,0,0,0,-0.002284039,38
0,130,0.792,-0.158874,-0.000313454,0,0,0,0,-0.002284039,38
0,134,0.816,-0.163474,-0.00031695,0,0,0,0,-0.002284039,38
0,139,0.846,-0.169609,-0.000323023,0,0,0,0,-0.002284039,38
0,143,0.87,-0.174209,-0.000326213,0,0,0,0,-0.002284039,38
0,147,0.894,-0.178503,-0.000334801,0,0,0,0,-0.002284039,38
0,151,0.918,-0.183104,-0.000339033,0,0,0,0,-0.002284039,38
0,155,0.942,-0.188624,-0.000342714,0,0,0,0,-0.002284039,38
0,159,0.966,-0.193225,-0.000350565,0,0,0,0,-0.002284039,38
0,163,0.99,-0.198132,-0.00035946,0,0,0,0,-0.002284039,38
0,167,1.014,-0.202733,-0.000366759,0,0,0,0,-0.002284039,38
0,171,1.038,-0.207027,-0.000373078,0,0,0,0,-0.002284039,38
0,175,1.062,-0.213161,-0.000378844,0,0,0,0,-0.002284039,38
0,179,1.086,-0.217455,-0.000385653,0,0,0,0,-0.002284039,38
0,183,1.11,-0.222055,-0.000393811,0,0,0,0,-0.002284039,38
0,187,1.134,-0.226963,-0.000401479,0,0,0,0,-0.002284039,38
0,191,1.158,-0.231563,-0.000406938,0,0,0,0,-0.002284039,38
0,195,1.182,-0.236471,-0.000411293,0,0,0,0,-0.002284039,38
0,199,1.206,-0.241071,-0.000421537,0,0,0,0,-0.002284039,38
0,203,1.23,-0.245672,-0.000432885,0,0,0,0,-0.002284039,38
0,207,1.254,-0.251499,-0.000438958,0,0,0,0,-0.002284039,38
0,211,1.278,-0.255486,-0.000448527,0,0,0,0,-0.002284039,38
0,215,1.302,-0.260087,-0.000454477,0,0,0,0,-0.002284039,38
0,219,1.326,-0.265301,-0.000464967,0,0,0,0,-0.002284039,38
0,223,1.35,-0.269902,-0.000467604,0,0,0,0,-0.002284039,38
0,227,1.374,-0.275422,-0.000476928,0,0,0,0,-0.002284039,38
0,231,1.398,-0.279716,-0.0004857,0,0,0,0,-0.002284039,38
0,235,1.422,-0.28401,-0.000493368,0,0,0,0,-0.002284039,38
0,239,1.446,-0.289224,-0.000502753,0,0,0,0,-0.002284039,38
0,243,1.47,-0.294131,-0.000507599,0,0,0,0,-0.002284039,38
0,247,1.494,-0.299345,-0.000517843,0,0,0,0,-0.002284039,38
0,251,1.518,-0.303639,-0.000530295,0,0,0,0,-0.002284039,38
0,255,1.542,-0.30824,-0.000536368,0,0,0,0,-0.002284039,38
0,259,1.566,-0.313147,-0.000543116,0,0,0,0,-0.002284039,38
0,263,1.59,-0.318361,-0.000550722,0,0,0,0,-0.002284039,38
0,267,1.614,-0.323268,-0.000564033,0,0,0,0,-0.002284039,38
0,271,1.638,-0.327256,-0.000572498,0,0,0,0,-0.002284039,38
0,276,1.668,-0.333696,-0.00058127,0,0,0,0,-0.002284039,38
0,280,1.692,-0.338297,-0.000589122,0,0,0,0,-0.002284039,38
0,284,1.716,-0.343204,-0.000598997,0,0,0,0,-0.002284039,38
0,288,1.74,-0.348112,-0.000609978,0,0,0,0,-0.002284039,38
0,292,1.764,-0.353019,-0.000618381,0,0,0,0,-0.002284039,38
0,296,1.788,-0.357006,-0.000625681,0,0,0,0,-0.002284039,38
0,300,1.812,-0.36222,-0.000635741,0,0,0,0,-0.002284039,38
0,304,1.836,-0.367127,-0.000640832,0,0,0,0,-0.002284039,38
0,308,1.86,-0.371421,-0.000648009,0,0,0,0,-0.002284039,38
0,312,1.884,-0.376635,-0.000655431,0,0,0,0,-0.002284039,38
0,316,1.908,-0.381849,-0.000663099,0,0,0,0,-0.002284039,38
0,320,1.932,-0.386143,-0.000669295,0,0,0,0,-0.002284039,38
0,324,1.956,-0.391357,-0.000673834,0,0,0,0,-0.002284039,38
0,328,1.98,-0.395958,-0.000679661,0,0,0,0,-0.002284039,38
0,332,2.004,-0.400558,-0.000686041,0,0,0,0,-0.002284039,38
0,336,2.028,-0.406079,-0.000693831,0,0,0,0,-0.002284039,38
0,340,2.052,-0.410373,-0.000695242,0,0,0,0,-0.002284039,38
0,344,2.076,-0.414974,-0.000701928,0,0,0,0,-0.002284039,38
0,348,2.1,-0.420188,-0.000703339,0,0,0,0,-0.002284039,38
0,352,2.124,-0.424788,-0.000710884,0,0,0,0,-0.002284039,38
0,356,2.148,-0.429696,-0.000714319,0,0,0,0,-0.002284039,38
0,360,2.172,-0.434603,-0.000718429,0,0,0,0,-0.002284039,38
0,364,2.196,-0.439203,-0.000718858,0,0,0,0,-0.002284039,38
0,368,2.22,-0.444417,-0.000718797,0,0,0,0,-0.002284039,38
0,372,2.244,-0.449018,-0.000724072,0,0,0,0,-0.002284039,38
0,376,2.268,-0.453312,-0.000728182,0,0,0,0,-0.002284039,38
0,380,2.292,-0.458526,-0.000727078,0,0,0,0,-0.002284039,38
0,384,2.316,-0.463127,-0.000729532,0,0,0,0,-0.002284039,38
0,388,2.34,-0.468034,-0.000732783,0,0,0,0,-0.002284039,38
0,392,2.364,-0.472634,-0.000736954,0,0,0,0,-0.002284039,38
0,396,2.388,-0.477848,-0.000737874,0,0,0,0,-0.002284039,38
0,400,2.412,-0.482449,-0.000737751,0,0,0,0,-0.002284039,38
0,404,2.436,-0.487356,-0.000740819,0,0,0,0,-0.002284039,38
0,408,2.46,-0.49165,-0.000740696,0,0,0,0,-0.002284039,38
0,413,2.49,-0.498091,-0.000743088,0,0,0,0,-0.002284039,38
0,417,2.514,-0.502998,-0.000743579,0,0,0,0,-0.002284039,38
0,421,2.538,-0.507292,-0.000747382,0,0,0,0,-0.002284039,38
0,425,2.562,-0.5122,-0.000749345,0,0,0,0,-0.002284039,38
0,430,2.592,-0.518027,-0.000750817,0,0,0,0,-0.002284039,38
0,434,2.616,-0.523241,-0.00075413,0,0,0,0,-0.002284039,38
0,438,2.64,-0.527842,-0.000752596,0,0,0,0,-0.002284039,38
0,442,2.664,-0.532749,-0.000754804,0,0,0,0,-0.002284039,38
0,446,2.688,-0.537656,-0.000757135,0,0,0,0,-0.002284039,38
0,450,2.712,-0.54287,-0.000759098,0,0,0,0,-0.002284039,38
0,454,2.736,-0.547164,-0.000758301,0,0,0,0,-0.002284039,38
0,458,2.76,-0.551458,-0.000762349,0,0,0,0,-0.002284039,38
0,462,2.784,-0.556672,-0.0007656,0,0,0,0,-0.002284039,38
0,466,2.808,-0.561579,-0.00077014,0,0,0,0,-0.002284039,38
0,470,2.832,-0.566487,-0.000767379,0,0,0,0,-0.002284039,38
0,474,2.856,-0.571087,-0.000772716,0,0,0,0,-0.002284039,38
0,478,2.88,-0.575688,-0.000772164,0,0,0,0,-0.002284039,38
0,482,2.904,-0.580902,-0.000775231,0,0,0,0,-0.002284039,38
0,486,2.928,-0.585502,-0.00078161,0,0,0,0,-0.002284039,38
0,490,2.952,-0.59041,-0.000784616,0,0,0,0,-0.002284039,38
0,494,2.976,-0.595317,-0.000788235,0,0,0,0,-0.002284039,38
0,498,3,-0.599611,-0.000789892,0,0,0,0,-0.002284039,38
0,502,3.024,-0.605132,-0.000793388,0,0,0,0,-0.002284039,38
0,506,3.048,-0.609425,-0.000800872,0,0,0,0,-0.002284039,38
0,510,3.072,-0.61464,-0.000807864,0,0,0,0,-0.002284039,38
0,514,3.096,-0.619547,-0.000809766,0,0,0,0,-0.002284039,38
0,518,3.12,-0.623841,-0.000813508,0,0,0,0,-0.002284039,38
0,522,3.144,-0.628441,-0.000818783,0,0,0,0,-0.002284039,38
0,526,3.168,-0.633349,-0.000829825,0,0,0,0,-0.002284039,38
0,530,3.192,-0.637949,-0.000835345,0,0,0,0,-0.002284039,38
0,534,3.216,-0.643163,-0.000839455,0,0,0,0,-0.002284039,38
0,538,3.24,-0.647764,-0.000845283,0,0,0,0,-0.002284039,38
0,542,3.264,-0.652364,-0.000856876,0,0,0,0,-0.002284039,38
0,546,3.288,-0.657272,-0.000865648,0,0,0,0,-0.002284039,38
0,550,3.312,-0.663099,-0.000870494,0,0,0,0,-0.002284039,38
0,554,3.336,-0.667393,-0.000882333,0,0,0,0,-0.002284039,38
0,558,3.36,-0.671994,-0.000891779,0,0,0,0,-0.002284039,38
0,562,3.384,-0.676901,-0.000901533,0,0,0,0,-0.002284039,38
0,566,3.408,-0.681195,-0.000914353,0,0,0,0,-0.002284039,38
0,571,3.438,-0.687636,-0.000929382,0,0,0,0,-0.002284039,38
0,575,3.462,-0.69193,-0.00093846,0,0,0,0,-0.002284039,38
0,579,3.486,-0.697143,-0.000949808,0,0,0,0,-0.002284039,38
0,583,3.51,-0.702051,-0.000964898,0,0,0,0,-0.002284039,38
0,587,3.534,-0.706958,-0.000978148,0,0,0,0,-0.002284039,38
0,591,3.558,-0.711559,-0.000993115,0,0,0,0,-0.002284039,38
0,595,3.582,-0.715853,-0.00101115,0,0,0,0,-0.002284039,38
0,599,3.606,-0.72168,-0.00102495,0,0,0,0,-0.002284039,38
0,603,3.63,-0.725667,-0.00104348,0,0,0,0,-0.002284039,38
0,607,3.654,-0.730881,-0.00106096,0,0,0,0,-0.002284039,38
0,611,3.678,-0.734868,-0.00107501,0,0,0,0,-0.002284039,38
0,615,3.702,-0.740082,-0.00109243,0,0,0,0,-0.002284039,38
0,619,3.726,-0.745296,-0.00110954,0,0,0,0,-0.002284039,38
0,623,3.75,-0.74959,-0.00112021,0,0,0,0,-0.002284039,38
0,627,3.774,-0.754498,-0.00113948,0,0,0,0,-0.002284039,38
0,631,3.798,-0.759098,-0.00115506,0,0,0,0,-0.002284039,38
0,635,3.822,-0.764005,-0.00117058,0,0,0,0,-0.002284039,38
0,639,3.846,-0.768606,-0.0011788,0,0,0,0,-0.002284039,38
0,643,3.87,-0.77382,-0.0011926,0,0,0,0,-0.002284039,38
0,647,3.894,-0.778727,-0.00120922,0,0,0,0,-0.002284039,38
0,651,3.918,-0.783328,-0.00122388,0,0,0,0,-0.002284039,38
0,655,3.942,-0.788542,-0.00122885,0,0,0,0,-0.002284039,38
0,659,3.966,-0.792529,-0.00123486,0,0,0,0,-0.002284039,38
0,663,3.99,-0.79805,-0.00124185,0,0,0,0,-0.002284039,38
0,667,4.014,-0.802344,-0.00124885,0,0,0,0,-0.002284039,38
0,671,4.038,-0.807251,-0.00125829,0,0,0,0,-0.002284039,38
0,675,4.062,-0.811852,-0.00126449,0,0,0,0,-0.002284039,38
0,679,4.086,-0.817372,-0.00126694,0,0,0,0,-0.002284039,38
0,683,4.11,-0.821666,-0.00126866,0,0,0,0,-0.002284039,38
0,687,4.134,-0.82688,-0.00127338,0,0,0,0,-0.002284039,38
0,691,4.158,-0.831481,-0.00128314,0,0,0,0,-0.002284039,38
0,695,4.182,-0.836082,-0.00128418,0,0,0,0,-0.002284039,38
0,699,4.206,-0.840989,-0.00128547,0,0,0,0,-0.002284039,38
0,703,4.23,-0.845896,-0.00128982,0,0,0,0,-0.002284039,38
0,708,4.26,-0.851723,-0.00129393,0,0,0,0,-0.002284039,38
0,712,4.284,-0.856938,-0.0012997,0,0,0,0,-0.002284039,38
0,716,4.308,-0.861538,-0.00130847,0,0,0,0,-0.002284039,38
0,720,4.332,-0.866139,-0.00130853,0,0,0,0,-0.002284039,38
0,725,4.362,-0.872273,-0.00131908,0,0,0,0,-0.002284039,38
0,729,4.386,-0.87718,-0.0013243,0,0,0,0,-0.002284039,38
0,733,4.41,-0.881781,-0.00133043,0,0,0,0,-0.002284039,38
0,737,4.434,-0.886381,-0.00133583,0,0,0,0,-0.002284039,38
0,741,4.458,-0.891595,-0.00134528,0,0,0,0,-0.002284039,38
0,745,4.482,-0.896503,-0.00135178,0,0,0,0,-0.002284039,38
0,749,4.506,-0.900797,-0.00135576,0,0,0,0,-0.002284039,38
0,753,4.53,-0.905704,-0.00136435,0,0,0,0,-0.002284039,38
0,757,4.554,-0.910611,-0.00137503,0,0,0,0,-0.002284039,38
0,761,4.578,-0.915518,-0.00138337,0,0,0,0,-0.002284039,38
0,765,4.602,-0.919812,-0.00139171,0,0,0,0,-0.002284039,38
0,769,4.626,-0.92472,-0.00139981,0,0,0,0,-0.002284039,38
0,773,4.65,-0.93024,-0.00140876,0,0,0,0,-0.002284039,38
0,777,4.674,-0.934228,-0.00142318,0,0,0,0,-0.002284039,38
0,781,4.698,-0.939442,-0.00143164,0,0,0,0,-0.002284039,38
0,785,4.722,-0.944349,-0.00143778,0,0,0,0,-0.002284039,38
0,789,4.746,-0.948029,-0.00144508,0,0,0,0,-0.002284039,38
0,793,4.77,-0.95355,-0.00145452,0,0,0,0,-0.002284039,38
0,797,4.794,-0.958151,-0.00146771,0,0,0,0,-0.002284039,38
0,801,4.818,-0.963365,-0.00147477,0,0,0,0,-0.002284039,38
0,805,4.842,-0.968272,-0.00148299,0,0,0,0,-0.002284039,38
0,809,4.866,-0.972566,-0.0014917,0,0,0,0,-0.002284039,38
0,813,4.89,-0.977166,-0.00149992,0,0,0,0,-0.002284039,38
0,817,4.914,-0.982687,-0.00150255,0,0,0,0,-0.002284039,38
0,821,4.938,-0.987288,-0.00150906,0,0,0,0,-0.002284039,38
0,825,4.962,-0.992502,-0.00151329,0,0,0,0,-0.002284039,38
0,829,4.986,-0.996796,-0.00151679,0,0,0,0,-0.002284039,38
0,833,5.01,-1.00201,-0.00151991,0,0,0,0,-0.002284039,38
0,837,5.034,-1.00661,-0.00152206,0,0,0,0,-0.002284039,38
0,841,5.058,-1.01152,-0.00152059,0,0,0,0,-0.002284039,38
0,845,5.082,-1.01612,-0.00152433,0,0,0,0,-0.002284039,38
0,849,5.106,-1.02072,-0.00152887,0,0,0,0,-0.002284039,38
0,853,5.13,-1.02563,-0.00152635,0,0,0,0,-0.002284039,38
0,857,5.154,-1.03053,-0.00152304,0,0,0,0,-0.002284039,38
0,862,5.184,-1.03667,-0.00152053,0,0,0,0,-0.002284039,38
0,866,5.208,-1.04096,-0.00152243,0,0,0,0,-0.002284039,38
0,870,5.232,-1.04618,-0.00152875,0,0,0,0,-0.002284039,38
0,874,5.256,-1.05078,-0.00152488,0,0,0,0,-0.002284039,38
0,878,5.28,-1.05599,-0.00152218,0,0,0,0,-0.002284039,38
0,882,5.304,-1.06028,-0.00152212,0,0,0,0,-0.002284039,38
0,886,5.328,-1.0655,-0.00152372,0,0,0,0,-0.002284039,38
0,890,5.352,-1.0701,-0.00152826,0,0,0,0,-0.002284039,38
0,894,5.376,-1.07531,-0.00152997,0,0,0,0,-0.002284039,38
0,898,5.4,-1.07961,-0.00152912,0,0,0,0,-0.002284039,38
0,902,5.424,-1.08482,-0.00153046,0,0,0,0,-0.002284039,38
0,906,5.448,-1.08911,-0.00153322,0,0,0,0,-0.002284039,38
0,910,5.472,-1.09371,-0.00152666,0,0,0,0,-0.002284039,38
0,914,5.496,-1.09893,-0.00153237,0,0,0,0,-0.002284039,38
0,918,5.52,-1.10353,-0.00153911,0,0,0,0,-0.002284039,38
0,922,5.544,-1.10844,-0.0015401,0,0,0,0,-0.002284039,38
0,926,5.568,-1.11334,-0.00154427,0,0,0,0,-0.002284039,38
0,930,5.592,-1.11825,-0.00154555,0,0,0,0,-0.002284039,38
0,934,5.616,-1.12255,-0.00155108,0,0,0,0,-0.002284039,38
0,938,5.64,-1.12807,-0.00155476,0,0,0,0,-0.002284039,38
0,942,5.664,-1.13236,-0.00156009,0,0,0,0,-0.002284039,38
0,946,5.688,-1.13696,-0.00156359,0,0,0,0,-0.002284039,38
0,950,5.712,-1.14156,-0.00157058,0,0,0,0,-0.002284039,38
0,954,5.736,-1.14647,-0.00156985,0,0,0,0,-0.002284039,38
0,958,5.76,-1.15107,-0.00157236,0,0,0,0,-0.002284039,38
0,962,5.784,-1.15659,-0.00157702,0,0,0,0,-0.002284039,38
0,966,5.808,-1.1618,-0.00158457,0,0,0,0,-0.002284039,38
0,970,5.832,-1.1661,-0.00158825,0,0,0,0,-0.002284039,38
0,974,5.856,-1.1707,-0.0015953,0,0,0,0,-0.002284039,38
0,978,5.88,-1.17561,-0.00160052,0,0,0,0,-0.002284039,38
0,982,5.904,-1.18051,-0.001608,0,0,0,0,-0.002284039,38
0,986,5.928,-1.18481,-0.00161665,0,0,0,0,-0.002284039,38
0,990,5.952,-1.18971,-0.00162732,0,0,0,0,-0.002284039,38
0,994,5.976,-1.19493,-0.0016334,0,0,0,0,-0.002284039,38
1,999,6.015008,-1.19707,-0.00146274,0,0,0,0,-0.002284039,38
1,1003,6.07504,-1.18573,-0.00139582,0,0,0,0,-0.002284039,38
1,1007,6.135072,-1.17346,-0.00133908,0,0,0,0,-0.002284039,38
1,1011,6.195104,-1.1615,-0.00129718,0,0,0,0,-0.002284039,38
1,1015,6.255136,-1.14954,-0.00125701,0,0,0,0,-0.002284039,38
1,1019,6.315168,-1.13727,-0.00122768,0,0,0,0,-0.002284039,38
1,1023,6.3752,-1.125,-0.00119131,0,0,0,0,-0.002284039,38
1,1027,6.435232,-1.11365,-0.00116334,0,0,0,0,-0.002284039,38
1,1031,6.495264,-1.10138,-0.00113831,0,0,0,0,-0.002284039,38
1,1035,6.555296,-1.08973,-0.00111733,0,0,0,0,-0.002284039,38
1,1039,6.615328,-1.07715,-0.00109396,0,0,0,0,-0.002284039,38
1,1043,6.67536,-1.0655,-0.001072,0,0,0,0,-0.002284039,38
1,1047,6.735392,-1.05354,-0.00105262,0,0,0,0,-0.002284039,38
1,1051,6.795424,-1.04065,-0.00103421,0,0,0,0,-0.002284039,38
1,1055,6.855456,-1.02992,-0.00101612,0,0,0,0,-0.002284039,38
1,1059,6.915488,-1.01673,-0.00101937,0,0,0,0,-0.002284039,38
1,1063,6.97552,-1.00538,-0.000995937,0,0,0,0,-0.002284039,38
1,1067,7.035552,-0.993115,-0.000973793,0,0,0,0,-0.002284039,38
1,1071,7.095584,-0.981767,-0.000947416,0,0,0,0,-0.002284039,38
1,1075,7.155616,-0.969499,-0.000929811,0,0,0,0,-0.002284039,38
1,1079,7.215648,-0.957537,-0.000898772,0,0,0,0,-0.002284039,38
1,1083,7.27568,-0.945269,-0.000875524,0,0,0,0,-0.002284039,38
1,1087,7.335712,-0.933307,-0.000850619,0,0,0,0,-0.002284039,38
1,1091,7.395744,-0.921346,-0.000817986,0,0,0,0,-0.002284039,38
1,1095,7.455776,-0.909384,-0.000788297,0,0,0,0,-0.002284039,38
1,1099,7.515808,-0.897423,-0.000754007,0,0,0,0,-0.002284039,38
1,1103,7.57584,-0.885461,-0.000716589,0,0,0,0,-0.002284039,38
1,1107,7.635872,-0.873193,-0.000673895,0,0,0,0,-0.002284039,38
1,1111,7.695904,-0.861538,-0.000620528,0,0,0,0,-0.002284039,38
1,1115,7.755936,-0.84927,-0.000567345,0,0,0,0,-0.002284039,38
1,1119,7.815968,-0.837615,-0.000516862,0,0,0,0,-0.002284039,38
1,1123,7.876,-0.825347,-0.000454293,0,0,0,0,-0.002284039,38
1,1127,7.936032,-0.813385,-0.000385407,0,0,0,0,-0.002284039,38
1,1131,7.996064,-0.801117,-0.000316337,0,0,0,0,-0.002284039,38
1,1135,8.056096,-0.789155,-0.000251438,0,0,0,0,-0.002284039,38
1,1139,8.116128,-0.777807,-0.000192366,0,0,0,0,-0.002284039,38
1,1143,8.17616,-0.765539,-0.000128633,0,0,0,0,-0.002284039,38
1,1147,8.236192,-0.753271,-7.24379e-05,0,0,0,0,-0.002284039,38
1,1151,8.296224,-0.741003,-2.13284e-05,0,0,0,0,-0.002284039,38
1,1155,8.356256,-0.729348,2.01003e-05,0,0,0,0,-0.002284039,38
1,1159,8.416288,-0.717386,8.24365e-05,0,0,0,0,-0.002284039,38
1,1163,8.47632,-0.705731,0.000131841,0,0,0,0,-0.002284039,38
1,1167,8.536352,-0.693463,0.000183693,0,0,0,0,-0.002284039,38
1,1171,8.596384,-0.681808,0.000230398,0,0,0,0,-0.002284039,38
1,1175,8.656416,-0.66954,0.000278919,0,0,0,0,-0.002284039,38
1,1179,8.716448,-0.657272,0.00031787,0,0,0,0,-0.002284039,38
1,1183,8.77648,-0.64531,0.000337745,0,0,0,0,-0.002284039,38
1,1187,8.836512,-0.633655,0.000347621,0,0,0,0,-0.002284039,38
1,1191,8.896544,-0.621694,0.000365349,0,0,0,0,-0.002284039,38
1,1195,8.956576,-0.609425,0.000371483,0,0,0,0,-0.002284039,38
1,1199,9.016608,-0.597464,0.000366514,0,0,0,0,-0.002284039,38
1,1203,9.07664,-0.585502,0.000340751,0,0,0,0,-0.002284039,38
1,1207,9.136672,-0.573234,0.00030689,0,0,0,0,-0.002284039,38
1,1211,9.196704,-0.560966,0.000257572,0,0,0,0,-0.002284039,38
1,1215,9.256736,-0.549618,0.000202794,0,0,0,0,-0.002284039,38
1,1219,9.316768,-0.537043,0.000148446,0,0,0,0,-0.002284039,38
1,1223,9.3768,-0.526001,0.000107942,0,0,0,0,-0.002284039,38
1,1227,9.436832,-0.512813,7.81488e-05,0,0,0,0,-0.002284039,38
1,1231,9.496864,-0.501158,6.35312e-05,0,0,0,0,-0.002284039,38
1,1235,9.556896,-0.489503,5.93538e-05,0,0,0,0,-0.002284039,38
1,1239,9.616928,-0.477542,7.2855e-05,0,0,0,0,-0.002284039,38
1,1243,9.67696,-0.465274,9.00183e-05,0,0,0,0,-0.002284039,38
1,1247,9.736992,-0.453005,0.00011258,0,0,0,0,-0.002284039,38
1,1251,9.797024,-0.44135,0.000141379,0,0,0,0,-0.002284039,38
1,1255,9.857056,-0.428775,0.000175657,0,0,0,0,-0.002284039,38
1,1259,9.917088,-0.417427,0.000209787,0,0,0,0,-0.002284039,38
1,1263,9.97712,-0.405159,0.000247389,0,0,0,0,-0.002284039,38
1,1267,10.0372,-0.393811,0.000278735,0,0,0,0,-0.002284039,38
1,1271,10.0972,-0.381849,0.000308915,0,0,0,0,-0.002284039,38
1,1275,10.1572,-0.369274,0.000327317,0,0,0,0,-0.002284039,38
1,1279,10.2172,-0.35762,0.000343818,0,0,0,0,-0.002284039,38
1,1283,10.27728,-0.345658,0.000348234,0,0,0,0,-0.002284039,38
1,1287,10.3373,-0.333083,0.00034805,0,0,0,0,-0.002284039,38
1,1291,10.3973,-0.321428,0.000350381,0,0,0,0,-0.002284039,38
1,1295,10.4574,-0.309773,0.000357558,0,0,0,0,-0.002284039,38
1,1299,10.5174,-0.297198,0.000358908,0,0,0,0,-0.002284039,38
1,1303,10.57744,-0.28585,0.000373016,0,0,0,0,-0.002284039,38
1,1307,10.6375,-0.272969,0.000379028,0,0,0,0,-0.002284039,38
1,1311,10.6975,-0.261621,0.000393995,0,0,0,0,-0.002284039,38
1,1315,10.7575,-0.249659,0.000403687,0,0,0,0,-0.002284039,38
1,1319,10.8176,-0.237084,0.000405773,0,0,0,0,-0.002284039,38
1,1323,10.8776,-0.225122,0.000415219,0,0,0,0,-0.002284039,38
1,1327,10.9376,-0.212547,0.000418225,0,0,0,0,-0.002284039,38
1,1331,10.9977,-0.201199,0.000416385,0,0,0,0,-0.002284039,38
1,1335,11.0577,-0.188931,0.000416507,0,0,0,0,-0.002284039,38
1,1339,11.1177,-0.17697,0.000422089,0,0,0,0,-0.002284039,38
1,1343,11.17776,-0.164701,0.000428653,0,0,0,0,-0.002284039,38
1,1347,11.2378,-0.153046,0.000431843,0,0,0,0,-0.002284039,38
1,1351,11.2978,-0.141392,0.000437609,0,0,0,0,-0.002284039,38
1,1355,11.3579,-0.128817,0.00044454,0,0,0,0,-0.002284039,38
1,1359,11.4179,-0.117162,0.000462697,0,0,0,0,-0.002284039,38
1,1363,11.47792,-0.1052,0.000480977,0,0,0,0,-0.002284039,38
1,1367,11.538,-0.0932387,0.000495576,0,0,0,0,-0.002284039,38
1,1371,11.598,-0.0815839,0.000524713,0,0,0,0,-0.002284039,38
1,1375,11.658,-0.0690089,0.000558267,0,0,0,0,-0.002284039,38
1,1379,11.718,-0.0570474,0.000600408,0,0,0,0,-0.002284039,38
1,1383,11.77808,-0.0450858,0.000648255,0,0,0,0,-0.002284039,38
1,1387,11.8381,-0.033431,0.000713767,0,0,0,0,-0.002284039,38
1,1391,11.8981,-0.0214694,0.000810257,0,0,0,0,-0.002284039,38
1,1395,11.9582,-0.00889448,0.00092748,0,0,0,0,-0.002284039,38
1,1399,12.0182,0.00276036,0.00108163,0,0,0,0,-0.002284039,38
1,1403,12.07824,0.0147219,0.0012816,0,0,0,0,-0.002284039,38
1,1407,12.1383,0.0266835,0.00154629,0,0,0,0,-0.002284039,38
1,1411,12.1983,0.038645,0.00187459,0,0,0,0,-0.002284039,38
1,1415,12.2583,0.0506065,0.00226717,0,0,0,0,-0.002284039,38
1,1419,12.3184,0.0622614,0.00276036,0,0,0,0,-0.002284039,38
1,1423,12.3784,0.0742229,0.00333328,0,0,0,0,-0.002284039,38
1,1427,12.4384,0.0864912,0.00397001,0,0,0,0,-0.002284039,38
1,1431,12.4985,0.0990661,0.00471837,0,0,0,0,-0.002284039,38
1,1435,12.5585,0.110414,0.00553789,0,0,0,0,-0.002284039,38
1,1439,12.6185,0.122069,0.00639851,0,0,0,0,-0.002284039,38
1,1443,12.67856,0.134031,0.00715791,0,0,0,0,-0.002284039,38
1,1447,12.7386,0.145686,0.00778666,0,0,0,0,-0.002284039,38
1,1451,12.7986,0.157647,0.00824243,0,0,0,0,-0.002284039,38
1,1455,12.8587,0.169302,0.00840805,0,0,0,0,-0.002284039,38
1,1459,12.9187,0.182184,0.0083191,0,0,0,0,-0.002284039,38
1,1463,12.97872,0.194145,0.00783512,0,0,0,0,-0.002284039,38
1,1467,13.0388,0.2058,0.00718981,0,0,0,0,-0.002284039,38
1,1471,13.0988,0.218068,0.00671932,0,0,0,0,-0.002284039,38
1,1475,13.1588,0.230336,0.00582619,0,0,0,0,-0.002284039,38
1,1479,13.2188,0.242298,0.00582251,0,0,0,0,-0.002284039,38
1,1483,13.27888,0.25426,0.00540478,0,0,0,0,-0.002284039,38
1,1487,13.3389,0.266221,0.00493245,0,0,0,0,-0.002284039,38
1,1491,13.3989,0.278183,0.00496926,0,0,0,0,-0.002284039,38
1,1495,13.459,0.290451,0.0047607,0,0,0,0,-0.002284039,38
1,1499,13.519,0.302412,0.00502814,0,0,0,0,-0.002284039,38
1,1503,13.57904,0.314374,0.00503489,0,0,0,0,-0.002284039,38
1,1507,13.6391,0.325722,0.00521462,0,0,0,0,-0.002284039,38
1,1511,13.6991,0.338604,0.00534221,0,0,0,0,-0.002284039,38
1,1515,13.7591,0.350565,0.0054287,0,0,0,0,-0.002284039,38
1,1519,13.8192,0.36222,0.00551703,0,0,0,0,-0.002284039,38
1,1523,13.8792,0.374182,0.00560782,0,0,0,0,-0.002284039,38
1,1527,13.9392,0.385837,0.00596851,0,0,0,0,-0.002284039,38
1,1531,13.9993,0.398412,0.00604396,0,0,0,0,-0.002284039,38
1,1535,14.0593,0.410373,0.0063433,0,0,0,0,-0.002284039,38
1,1539,14.1193,0.422028,0.00639299,0,0,0,0,-0.002284039,38
1,1543,14.17936,0.434296,0.00642304,0,0,0,0,-0.002284039,38
1,1547,14.2394,0.446258,0.0068279,0,0,0,0,-0.002284039,38
1,1551,14.2994,0.458219,0.0065353,0,0,0,0,-0.002284039,38
1,1555,14.3595,0.470488,0.00704995,0,0,0,0,-0.002284039,38
1,1559,14.4195,0.482142,0.00698064,0,0,0,0,-0.002284039,38
1,1563,14.47952,0.493797,0.00727507,0,0,0,0,-0.002284039,38
1,1567,14.5396,0.506372,0.00736279,0,0,0,0,-0.002284039,38
1,1571,14.5996,0.518027,0.00746707,0,0,0,0,-0.002284039,38
1,1575,14.6596,0.529989,0.0077609,0,0,0,0,-0.002284039,38
1,1579,14.7196,0.54195,0.00781917,0,0,0,0,-0.002284039,38
1,1583,14.77968,0.553605,0.00786886,0,0,0,0,-0.002284039,38
1,1587,14.8397,0.56526,0.00794431,0,0,0,0,-0.002284039,38
1,1591,14.8997,0.578448,0.00802344,0,0,0,0,-0.002284039,38
1,1595,14.9598,0.590103,0.00800504,0,0,0,0,-0.002284039,38
1,1599,15.0198,0.601758,0.0077977,0,0,0,0,-0.002284039,38
1,1603,15.07984,0.614026,0.0079989,0,0,0,0,-0.002284039,38
1,1607,15.1399,0.625988,0.00783941,0,0,0,0,-0.002284039,38
1,1611,15.1999,0.637643,0.00792468,0,0,0,0,-0.002284039,38
1,1615,15.2599,0.650217,0.00778789,0,0,0,0,-0.002284039,38
1,1619,15.32,0.662792,0.00775844,0,0,0,0,-0.002284039,38
1,1623,15.38,0.674141,0.00723214,0,0,0,0,-0.002284039,38
1,1627,15.44,0.686102,0.00743702,0,0,0,0,-0.002284039,38
1,1631,15.5001,0.698064,0.00748793,0,0,0,0,-0.002284039,38
1,1635,15.5601,0.710025,0.00785598,0,0,0,0,-0.002284039,38
1,1639,15.6201,0.722293,0.00763392,0,0,0,0,-0.002284039,38
1,1643,15.68016,0.734562,0.00779157,0,0,0,0,-0.002284039,38
1,1647,15.7402,0.746523,0.0076376,0,0,0,0,-0.002284039,38
1,1651,15.8002,0.758178,0.00783512,0,0,0,0,-0.002284039,38
1,1655,15.8603,0.77014,0.00765662,0,0,0,0,-0.002284039,38
1,1659,15.9203,0.782408,0.00809398,0,0,0,0,-0.002284039,38
1,1663,15.98032,0.793756,0.00816146,0,0,0,0,-0.002284039,38
1,1667,16.0404,0.805411,0.00793633,0,0,0,0,-0.002284039,38
1,1671,16.1004,0.817986,0.00859514,0,0,0,0,-0.002284039,38
1,1675,16.1604,0.829947,0.00862826,0,0,0,0,-0.002284039,38
1,1679,16.2204,0.841602,0.00892209,0,0,0,0,-0.002284039,38
1,1683,16.28048,0.85387,0.00882946,0,0,0,0,-0.002284039,38
1,1687,16.3405,0.866139,0.00950299,0,0,0,0,-0.002284039,38
1,1691,16.4005,0.8781,0.00983975,0,0,0,0,-0.002284039,38
1,1695,16.4606,0.890369,0.00991152,0,0,0,0,-0.002284039,38
1,1699,16.5206,0.902023,0.0108776,0,0,0,0,-0.002284039,38
1,1703,16.58064,0.913678,0.0113837,0,0,0,0,-0.002284039,38
1,1707,16.6407,0.92564,0.0117763,0,0,0,0,-0.002284039,38
1,1711,16.7007,0.937601,0.0122615,0,0,0,0,-0.002284039,38
1,1715,16.7607,0.949563,0.012824,0,0,0,0,-0.002284039,38
1,1719,16.8208,0.961524,0.0137981,0,0,0,0,-0.002284039,38
1,1723,16.8808,0.973486,0.0147728,0,0,0,0,-0.002284039,38
1,1727,16.9408,0.984834,0.0160469,0,0,0,0,-0.002284039,38
1,1731,17.0009,0.997409,0.0177589,0,0,0,0,-0.002284039,38
1,1735,17.0609,1.00784,0.0191139,0,0,0,0,-0.002284039,38
1,1739,17.1209,1.01949,0.020764,0,0,0,0,-0.002284039,38
1,1743,17.18096,1.03115,0.0225736,0,0,0,0,-0.002284039,38
1,1747,17.241,1.0428,0.0244752,0,0,0,0,-0.002284039,38
1,1751,17.301,1.05415,0.0265362,0,0,0,0,-0.002284039,38
1,1755,17.3611,1.06611,0.0281556,0,0,0,0,-0.002284039,38
1,1759,17.4211,1.07838,0.0303639,0,0,0,0,-0.002284039,38
1,1763,17.48112,1.08942,0.0320324,0,0,0,0,-0.002284039,38
1,1767,17.5412,1.10138,0.0345229,0,0,0,0,-0.002284039,38
1,1771,17.6012,1.11273,0.0363324,0,0,0,0,-0.002284039,38
1,1775,17.6612,1.12439,0.0389088,0,0,0,0,-0.002284039,38
1,1779,17.7212,1.13604,0.0410189,0,0,0,0,-0.002284039,38
1,1783,17.78128,1.14739,0.0433437,0,0,0,0,-0.002284039,38
1,1787,17.8413,1.15935,0.0456256,0,0,0,0,-0.002284039,38
1,1791,17.9013,1.171,0.0477664,0,0,0,0,-0.002284039,38
1,1795,17.9614,1.18327,0.0499073,0,0,0,0,-0.002284039,38
1,1799,18.0214,1.19401,0.0524468,0,0,0,0,-0.002284039,38
1,1803,18.08144,1.20628,0.0547593,0,0,0,0,-0.002284039,38
1,1807,18.1415,1.21762,0.0572375,0,0,0,0,-0.002284039,38
1,1811,18.2015,1.22897,0.0606481,0,0,0,0,-0.002284039,38
1,1815,18.2615,1.2394,0.063433,0,0,0,0,-0.002284039,38
1,1819,18.3216,1.25228,0.0666043,0,0,0,0,-0.002284039,38
1,1823,18.3816,1.26363,0.0694935,0,0,0,0,-0.002284039,38
1,1827,18.4416,1.27467,0.0726771,0,0,0,0,-0.002284039,38
1,1831,18.5017,1.28602,0.0757687,0,0,0,0,-0.002284039,38
1,1835,18.5617,1.29737,0.0789707,0,0,0,0,-0.002284039,38
1,1839,18.6217,1.30933,0.0817986,0,0,0,0,-0.002284039,38
1,1843,18.68176,1.32068,0.0854729,0,0,0,0,-0.002284039,38
1,1847,18.7418,1.33264,0.0878959,0,0,0,0,-0.002284039,38
1,1851,18.8018,1.34368,0.0919444,0,0,0,0,-0.002284039,38
1,1855,18.8619,1.35503,0.0947048,0,0,0,0,-0.002284039,38
1,1859,18.9219,1.36668,0.0980786,0,0,0,0,-0.002284039,38
1,1863,18.98192,1.37772,0.101606,0,0,0,0,-0.002284039,38
1,1867,19.042,1.38938,0.104961,0,0,0,0,-0.002284039,38
1,1871,19.102,1.40073,0.107813,0,0,0,0,-0.002284039,38
1,1875,19.162,1.41269,0.110966,0,0,0,0,-0.002284039,38
1,1879,19.222,1.42434,0.109862,0,0,0,0,-0.002284039,38
1,1883,19.28208,1.43784,0.102452,0,0,0,0,-0.002284039,38
1,1887,19.3421,1.45379,0.0781856,0,0,0,0,-0.002284039,38
1,1891,19.4021,1.47004,0.0530418,0,0,0,0,-0.002284039,38
1,1895,19.4622,1.48569,0.0349216,0,0,0,0,-0.002284039,38
1,1899,19.5222,1.49887,0.0296033,0,0,0,0,-0.002284039,38
1,1903,19.58224,1.50961,0.0330323,0,0,0,0,-0.002284039,38
1,1907,19.6423,1.52065,0.0383751,0,0,0,0,-0.002284039,38
1,1911,19.7023,1.53138,0.0444663,0,0,0,0,-0.002284039,38
1,1915,19.7623,1.54304,0.0470856,0,0,0,0,-0.002284039,38
1,1919,19.8224,1.55408,0.0539926,0,0,0,0,-0.002284039,38
1,1923,19.8824,1.56574,0.0578571,0,0,0,0,-0.002284039,38
1,1927,19.9424,1.57616,0.0682299,0,0,0,0,-0.002284039,38
1,1931,20.0025,1.5869,0.070432,0,0,0,0,-0.002284039,38
1,1935,20.0625,1.59794,0.0780874,0,0,0,0,-0.002284039,38
1,1939,20.1225,1.60959,0.0804429,0,0,0,0,-0.002284039,38
1,1943,20.18256,1.62033,0.0841541,0,0,0,0,-0.002284039,38
1,1947,20.2426,1.63198,0.0875217,0,0,0,0,-0.002284039,38
1,1951,20.3026,1.64425,0.090049,0,0,0,0,-0.002284039,38
1,1955,20.3627,1.65591,0.0907421,0,0,0,0,-0.002284039,38
1,1959,20.4227,1.66818,0.0903189,0,0,0,0,-0.002284039,38
1,1963,20.48272,1.68014,0.0904538,0,0,0,0,-0.002284039,38
1,1967,20.5428,1.69179,0.0884971,0,0,0,0,-0.002284039,38
1,1971,20.6028,1.70498,0.084424,0,0,0,0,-0.002284039,38
1,1975,20.6628,1.71664,0.0856938,0,0,0,0,-0.002284039,38
1,1979,20.7228,1.73044,0.0762349,0,0,0,0,-0.002284039,38
1,1983,20.78288,1.7424,0.0738733,0,0,0,0,-0.002284039,38
1,1987,20.8429,1.75405,0.078707,0,0,0,0,-0.002284039,38
1,1991,20.9029,1.7654,0.0818354,0,0,0,0,-0.002284039,38
1,1995,20.963,1.77706,0.0828414,0,0,0,0,-0.002284039,38
1,1999,21.023,1.78074,0.0846203,0,0,0,0,-0.002284039,38
1,2003,21.08304,1.7697,0.0797682,0,0,0,0,-0.002284039,38
1,2007,21.1431,1.75651,0.0858226,0,0,0,0,-0.002284039,38
1,2011,21.2031,1.74363,0.0934166,0,0,0,0,-0.002284039,38
1,2015,21.2631,1.73074,0.0950238,0,0,0,0,-0.002284039,38
1,2019,21.3232,1.7194,0.0946005,0,0,0,0,-0.002284039,38
1,2023,21.3832,1.70621,0.0972934,0,0,0,0,-0.002284039,38
1,2027,21.4432,1.69639,0.0873745,0,0,0,0,-0.002284039,38
1,2031,21.5033,1.68443,0.0859575,0,0,0,0,-0.002284039,38
1,2035,21.5633,1.67308,0.0842645,0,0,0,0,-0.002284039,38
1,2039,21.6233,1.66235,0.0752903,0,0,0,0,-0.002284039,38
1,2043,21.68336,1.65039,0.0716711,0,0,0,0,-0.002284039,38
1,2047,21.7434,1.63935,0.0686593,0,0,0,0,-0.002284039,38
1,2051,21.8034,1.6283,0.0656904,0,0,0,0,-0.002284039,38
1,2055,21.8635,1.61634,0.0634514,0,0,0,0,-0.002284039,38
1,2059,21.9235,1.60591,0.0577221,0,0,0,0,-0.002284039,38
1,2063,21.98352,1.59395,0.0540785,0,0,0,0,-0.002284039,38
1,2067,22.0436,1.58199,0.0523302,0,0,0,0,-0.002284039,38
1,2071,22.1036,1.57095,0.0478032,0,0,0,0,-0.002284039,38
1,2075,22.1636,1.5596,0.0455336,0,0,0,0,-0.002284039,38
1,2079,22.2236,1.54764,0.0415526,0,0,0,0,-0.002284039,38
1,2083,22.28368,1.53629,0.0380132,0,0,0,0,-0.002284039,38
1,2087,22.3437,1.52556,0.0340689,0,0,0,0,-0.002284039,38
1,2091,22.4037,1.5139,0.0297382,0,0,0,0,-0.002284039,38
1,2095,22.4638,1.50317,0.0250456,0,0,0,0,-0.002284039,38
1,2099,22.5238,1.49151,0.0197826,0,0,0,0,-0.002284039,38
1,2103,22.58384,1.48047,0.0148691,0,0,0,0,-0.002284039,38
1,2107,22.6439,1.46943,0.00977718,0,0,0,0,-0.002284039,38
1,2111,22.7039,1.45839,0.00447055,0,0,0,0,-0.002284039,38
1,2115,22.7639,1.44673,-0.00136901,0,0,0,0,-0.002284039,38
1,2119,22.824,1.43569,-0.00783696,0,0,0,0,-0.002284039,38
1,2123,22.884,1.42434,-0.0132325,0,0,0,0,-0.002284039,38
1,2127,22.944,1.41392,-0.019206,0,0,0,0,-0.002284039,38
1,2131,23.0041,1.40226,-0.0232974,0,0,0,0,-0.002284039,38
1,2135,23.0641,1.39153,-0.0277876,0,0,0,0,-0.002284039,38
1,2139,23.1241,1.38018,-0.0309896,0,0,0,0,-0.002284039,38
1,2143,23.18416,1.36883,-0.0351976,0,0,0,0,-0.002284039,38
1,2147,23.2442,1.35748,-0.0405772,0,0,0,0,-0.002284039,38
1,2151,23.3042,1.34705,-0.0471653,0,0,0,0,-0.002284039,38
1,2155,23.3643,1.33601,-0.053281,0,0,0,0,-0.002284039,38
1,2159,23.4243,1.32528,-0.0595808,0,0,0,0,-0.002284039,38
1,2163,23.48432,1.31393,-0.0654511,0,0,0,0,-0.002284039,38
1,2167,23.5444,1.3032,-0.0714012,0,0,0,0,-0.002284039,38
1,2171,23.6044,1.29185,-0.0769526,0,0,0,0,-0.002284039,38
1,2175,23.6644,1.28142,-0.082731,0,0,0,0,-0.002284039,38
1,2179,23.7244,1.27038,-0.0881597,0,0,0,0,-0.002284039,38
1,2183,23.78448,1.25903,-0.0938337,0,0,0,0,-0.002284039,38
1,2187,23.8445,1.24799,-0.0985754,0,0,0,0,-0.002284039,38
1,2191,23.9045,1.23695,-0.103612,0,0,0,0,-0.002284039,38
1,2195,23.9646,1.22591,-0.108034,0,0,0,0,-0.002284039,38
1,2199,24.0246,1.21425,-0.111279,0,0,0,0,-0.002284039,38
1,2203,24.08464,1.20229,-0.113279,0,0,0,0,-0.002284039,38
1,2207,24.1447,1.18971,-0.113107,0,0,0,0,-0.002284039,38
1,2211,24.2047,1.17806,-0.11039,0,0,0,0,-0.002284039,38
1,2215,24.2647,1.16487,-0.103937,0,0,0,0,-0.002284039,38
1,2219,24.3248,1.15076,-0.0929136,0,0,0,0,-0.002284039,38
1,2223,24.3848,1.13696,-0.08159,0,0,0,0,-0.002284039,38
1,2227,24.4448,1.12377,-0.0758791,0,0,0,0,-0.002284039,38
1,2231,24.5049,1.11181,-0.0739285,0,0,0,0,-0.002284039,38
1,2235,24.5649,1.09924,-0.0738058,0,0,0,0,-0.002284039,38
1,2239,24.6249,1.08758,-0.0728796,0,0,0,0,-0.002284039,38
1,2243,24.68496,1.07531,-0.0695181,0,0,0,0,-0.002284039,38
1,2247,24.745,1.06151,-0.0629852,0,0,0,0,-0.002284039,38
1,2251,24.805,1.04832,-0.055017,0,0,0,0,-0.002284039,38
1,2255,24.8651,1.03544,-0.0476867,0,0,0,0,-0.002284039,38
1,2259,24.9251,1.02225,-0.0418777,0,0,0,0,-0.002284039,38
1,2263,24.98512,1.00968,-0.0377249,0,0,0,0,-0.002284039,38
1,2267,25.0452,0.996489,-0.0345658,0,0,0,0,-0.002284039,38
1,2271,25.1052,0.983914,-0.0319895,0,0,0,0,-0.002284039,38
1,2275,25.1652,0.971952,-0.0293273,0,0,0,0,-0.002284039,38
1,2279,25.2252,0.959684,-0.0269656,0,0,0,0,-0.002284039,38
1,2283,25.28528,0.947416,-0.0247819,0,0,0,0,-0.002284039,38
1,2287,25.3453,0.934841,-0.0228005,0,0,0,0,-0.002284039,38
1,2291,25.4053,0.921959,-0.0211443,0,0,0,0,-0.002284039,38
1,2295,25.4654,0.910304,-0.0197335,0,0,0,0,-0.002284039,38
1,2299,25.5254,0.898036,-0.0185373,0,0,0,0,-0.002284039,38
1,2303,25.58544,0.886381,-0.0174209,0,0,0,0,-0.002284039,38
1,2307,25.6455,0.8735,-0.0164211,0,0,0,0,-0.002284039,38
1,2311,25.7055,0.861231,-0.0154825,0,0,0,0,-0.002284039,38
1,2315,25.7655,0.849577,-0.0146544,0,0,0,0,-0.002284039,38
1,2319,25.8256,0.836695,-0.0138337,0,0,0,0,-0.002284039,38
1,2323,25.8856,0.82412,-0.0130737,0,0,0,0,-0.002284039,38
1,2327,25.9456,0.812158,-0.0123707,0,0,0,0,-0.002284039,38
1,2331,26.0057,0.79989,-0.0117493,0,0,0,0,-0.002284039,38
1,2335,26.0657,0.787929,-0.011077,0,0,0,0,-0.002284039,38
1,2339,26.1257,0.776274,-0.0105188,0,0,0,0,-0.002284039,38
1,2343,26.18576,0.764005,-0.00997164,0,0,0,0,-0.002284039,38
1,2347,26.2458,0.752044,-0.00951035,0,0,0,0,-0.002284039,38
1,2351,26.3058,0.739162,-0.00899631,0,0,0,0,-0.002284039,38
1,2355,26.3659,0.728121,-0.00857919,0,0,0,0,-0.002284039,38
1,2359,26.4259,0.716159,-0.00815164,0,0,0,0,-0.002284039,38
1,2363,26.48592,0.703584,-0.00779525,0,0,0,0,-0.002284039,38
1,2367,26.546,0.69193,-0.0073861,0,0,0,0,-0.002284039,38
1,2371,26.606,0.679355,-0.00704873,0,0,0,0,-0.002284039,38
1,2375,26.666,0.667086,-0.00673466,0,0,0,0,-0.002284039,38
1,2379,26.726,0.655738,-0.00642672,0,0,0,0,-0.002284039,38
1,2383,26.78608,0.64347,-0.0061556,0,0,0,0,-0.002284039,38
1,2387,26.8461,0.631815,-0.00585625,0,0,0,0,-0.002284039,38
1,2391,26.9061,0.619547,-0.00560291,0,0,0,0,-0.002284039,38
1,2395,26.9662,0.607585,-0.00533301,0,0,0,0,-0.002284039,38
1,2399,27.0262,0.595624,-0.00509991,0,0,0,0,-0.002284039,38
1,2403,27.08624,0.583355,-0.00484167,0,0,0,0,-0.002284039,38
1,2407,27.1463,0.571087,-0.0046374,0,0,0,0,-0.002284039,38
1,2411,27.2063,0.559126,-0.00442087,0,0,0,0,-0.002284039,38
1,2415,27.2663,0.547164,-0.00419942,0,0,0,0,-0.002284039,38
1,2419,27.3264,0.535203,-0.00399393,0,0,0,0,-0.002284039,38
1,2423,27.3864,0.522934,-0.00380316,0,0,0,0,-0.002284039,38
1,2427,27.4464,0.511279,-0.00359828,0,0,0,0,-0.002284039,38
1,2431,27.5065,0.499318,-0.00339647,0,0,0,0,-0.002284039,38
1,2435,27.5665,0.486743,-0.00320692,0,0,0,0,-0.002284039,38
1,2439,27.6265,0.475702,-0.00302535,0,0,0,0,-0.002284039,38
1,2443,27.68656,0.463127,-0.00284992,0,0,0,0,-0.002284039,38
1,2447,27.7466,0.451472,-0.00266773,0,0,0,0,-0.002284039,38
1,2451,27.8066,0.43951,-0.00250763,0,0,0,0,-0.002284039,38
1,2455,27.8667,0.427855,-0.00237452,0,0,0,0,-0.002284039,38
1,2459,27.9267,0.414974,-0.00222791,0,0,0,0,-0.002284039,38
1,2463,27.98672,0.403012,-0.00209603,0,0,0,0,-0.002284039,38
1,2467,28.0468,0.390744,-0.001985,0,0,0,0,-0.002284039,38
1,2471,28.1068,0.378782,-0.0018887,0,0,0,0,-0.002284039,38
1,2475,28.1668,0.366821,-0.00178319,0,0,0,0,-0.002284039,38
1,2479,28.2268,0.355166,-0.00168443,0,0,0,0,-0.002284039,38
1,2483,28.28688,0.342898,-0.0016145,0,0,0,0,-0.002284039,38
1,2487,28.3469,0.330629,-0.00156788,0,0,0,0,-0.002284039,38
1,2491,28.4069,0.319281,-0.00146974,0,0,0,0,-0.002284039,38
1,2495,28.467,0.307013,-0.00140472,0,0,0,0,-0.002284039,38
1,2499,28.527,0.295665,-0.00135877,0,0,0,0,-0.002284039,38
1,2503,28.58704,0.283397,-0.00129602,0,0,0,0,-0.002284039,38
1,2507,28.6471,0.270822,-0.00125247,0,0,0,0,-0.002284039,38
1,2511,28.7071,0.25886,-0.00120468,0,0,0,0,-0.002284039,38
1,2515,28.7671,0.246899,-0.00116708,0,0,0,0,-0.002284039,38
1,2519,28.8272,0.234937,-0.00112868,0,0,0,0,-0.002284039,38
1,2523,28.8872,0.222976,-0.00109445,0,0,0,0,-0.002284039,38
1,2527,28.9472,0.211014,-0.00106709,0,0,0,0,-0.002284039,38
1,2531,29.0073,0.198746,-0.00106317,0,0,0,0,-0.002284039,38
1,2535,29.0673,0.186784,-0.00103145,0,0,0,0,-0.002284039,38
1,2539,29.1273,0.175436,-0.00102354,0,0,0,0,-0.002284039,38
1,2543,29.18736,0.162554,-0.00101575,0,0,0,0,-0.002284039,38
1,2547,29.2474,0.151206,-0.00100704,0,0,0,0,-0.002284039,38
1,2551,29.3074,0.138631,-0.00100103,0,0,0,0,-0.002284039,38
1,2555,29.3675,0.126976,-0.000997593,0,0,0,0,-0.002284039,38
1,2559,29.4275,0.114708,-0.000987533,0,0,0,0,-0.002284039,38
1,2563,29.48752,0.102747,-0.000982012,0,0,0,0,-0.002284039,38
1,2567,29.5476,0.0907851,-0.000969192,0,0,0,0,-0.002284039,38
1,2571,29.6076,0.0788235,-0.000963426,0,0,0,0,-0.002284039,38
1,2575,29.6676,0.066862,-0.000965512,0,0,0,0,-0.002284039,38
1,2579,29.7276,0.0545937,-0.000970971,0,0,0,0,-0.002284039,38
1,2583,29.78768,0.0426322,-0.000981031,0,0,0,0,-0.002284039,38
1,2587,29.8477,0.0306706,-0.00100747,0,0,0,0,-0.002284039,38
1,2591,29.9077,0.0193225,-0.00103697,0,0,0,0,-0.002284039,38
1,2595,29.9678,0.00736095,-0.00107905,0,0,0,0,-0.002284039,38
1,2599,30.0278,-0.0049073,-0.00112948,0,0,0,0,-0.002284039,38
1,2603,30.08784,-0.0171756,-0.00118689,0,0,0,0,-0.002284039,38
1,2607,30.1479,-0.0291371,-0.00124443,0,0,0,0,-0.002284039,38
1,2611,30.2079,-0.0417121,-0.00132436,0,0,0,0,-0.002284039,38
1,2615,30.2679,-0.0530602,-0.00133607,0,0,0,0,-0.002284039,38
1,2619,30.328,-0.0653284,-0.00132479,0,0,0,0,-0.002284039,38
1,2623,30.388,-0.07729,-0.0013484,0,0,0,0,-0.002284039,38
1,2627,30.448,-0.0892515,-0.00137766,0,0,0,0,-0.002284039,38
1,2631,30.5081,-0.101213,-0.00141159,0,0,0,0,-0.002284039,38
1,2635,30.5681,-0.114401,-0.00145146,0,0,0,0,-0.002284039,38
1,2639,30.6281,-0.124829,-0.00148526,0,0,0,0,-0.002284039,38
1,2643,30.68816,-0.137098,-0.00151218,0,0,0,0,-0.002284039,38
1,2647,30.7482,-0.149673,-0.00153605,0,0,0,0,-0.002284039,38
1,2651,30.8082,-0.161021,-0.00155745,0,0,0,0,-0.002284039,38
1,2655,30.8683,-0.172982,-0.00158267,0,0,0,0,-0.002284039,38
1,2659,30.9283,-0.185251,-0.00159886,0,0,0,0,-0.002284039,38
1,2663,30.98832,-0.196905,-0.00161481,0,0,0,0,-0.002284039,38
1,2667,31.0484,-0.20856,-0.0016329,0,0,0,0,-0.002284039,38
1,2671,31.1084,-0.221135,-0.00165082,0,0,0,0,-0.002284039,38
1,2675,31.1684,-0.232483,-0.00166732,0,0,0,0,-0.002284039,38
1,2679,31.2284,-0.245058,-0.00168253,0,0,0,0,-0.002284039,38
1,2683,31.28848,-0.257327,-0.0017013,0,0,0,0,-0.002284039,38
1,2687,31.3485,-0.269288,-0.00172344,0,0,0,0,-0.002284039,38
1,2691,31.4085,-0.28125,-0.0017362,0,0,0,0,-0.002284039,38
1,2695,31.4686,-0.293518,-0.00175706,0,0,0,0,-0.002284039,38
1,2699,31.5286,-0.304866,-0.00177884,0,0,0,0,-0.002284039,38
1,2703,31.58864,-0.317441,-0.00180852,0,0,0,0,-0.002284039,38
1,2707,31.6487,-0.329403,-0.00183165,0,0,0,0,-0.002284039,38
1,2711,31.7087,-0.341364,-0.00185803,0,0,0,0,-0.002284039,38
1,2715,31.7687,-0.353326,-0.00188502,0,0,0,0,-0.002284039,38
1,2719,31.8288,-0.365287,-0.00191569,0,0,0,0,-0.002284039,38
1,2723,31.8888,-0.376942,-0.0019482,0,0,0,0,-0.002284039,38
1,2727,31.9488,-0.38921,-0.00197764,0,0,0,0,-0.002284039,38
1,2731,32.0089,-0.400865,-0.00201383,0,0,0,0,-0.002284039,38
1,2735,32.0689,-0.413133,-0.00205739,0,0,0,0,-0.002284039,38
1,2739,32.1289,-0.424788,-0.0020899,0,0,0,0,-0.002284039,38
1,2743,32.18896,-0.437363,-0.002131,0,0,0,0,-0.002284039,38
1,2747,32.249,-0.449325,-0.00217393,0,0,0,0,-0.002284039,38
1,2751,32.309,-0.461286,-0.00221442,0,0,0,0,-0.002284039,38
1,2755,32.3691,-0.473248,-0.00225736,0,0,0,0,-0.002284039,38
1,2759,32.4291,-0.484903,-0.00229784,0,0,0,0,-0.002284039,38
1,2763,32.48912,-0.496864,-0.00234446,0,0,0,0,-0.002284039,38
1,2767,32.5492,-0.509439,-0.0023917,0,0,0,0,-0.002284039,38
1,2771,32.6092,-0.521094,-0.00243402,0,0,0,0,-0.002284039,38
1,2775,32.6692,-0.533056,-0.00248555,0,0,0,0,-0.002284039,38
1,2779,32.7292,-0.545324,-0.00254198,0,0,0,0,-0.002284039,38
1,2783,32.78928,-0.556979,-0.00259596,0,0,0,0,-0.002284039,38
1,2787,32.8493,-0.56894,-0.00265546,0,0,0,0,-0.002284039,38
1,2791,32.9093,-0.580595,-0.00272601,0,0,0,0,-0.002284039,38
1,2795,32.9694,-0.593477,-0.00279041,0,0,0,0,-0.002284039,38
1,2799,33.0294,-0.605132,-0.00287629,0,0,0,0,-0.002284039,38
1,2803,33.08944,-0.617093,-0.00295849,0,0,0,0,-0.002284039,38
1,2807,33.1495,-0.629055,-0.00304866,0,0,0,0,-0.002284039,38
1,2811,33.2095,-0.641323,-0.00314926,0,0,0,0,-0.002284039,38
1,2815,33.2695,-0.653591,-0.00326642,0,0,0,0,-0.002284039,38
1,2819,33.3296,-0.665246,-0.00339401,0,0,0,0,-0.002284039,38
1,2823,33.3896,-0.677208,-0.00353264,0,0,0,0,-0.002284039,38
1,2827,33.4496,-0.689476,-0.00368232,0,0,0,0,-0.002284039,38
1,2831,33.5097,-0.701437,-0.00385469,0,0,0,0,-0.002284039,38
1,2835,33.5697,-0.712786,-0.00403564,0,0,0,0,-0.002284039,38
1,2839,33.6297,-0.725054,-0.00423255,0,0,0,0,-0.002284039,38
1,2843,33.68976,-0.737015,-0.00445583,0,0,0,0,-0.002284039,38
1,2847,33.7498,-0.749284,-0.00470119,0,0,0,0,-0.002284039,38
1,2851,33.8098,-0.760938,-0.00496803,0,0,0,0,-0.002284039,38
1,2855,33.8699,-0.7729,-0.00526124,0,0,0,0,-0.002284039,38
1,2859,33.9299,-0.784862,-0.0055796,0,0,0,0,-0.002284039,38
1,2863,33.98992,-0.796823,-0.00593661,0,0,0,0,-0.002284039,38
1,2867,34.05,-0.808478,-0.00632613,0,0,0,0,-0.002284039,38
1,2871,34.11,-0.821053,-0.00675551,0,0,0,0,-0.002284039,38
1,2875,34.17,-0.832708,-0.00723398,0,0,0,0,-0.002284039,38
1,2879,34.23,-0.845283,-0.00775538,0,0,0,0,-0.002284039,38
1,2883,34.29008,-0.856631,-0.00838535,0,0,0,0,-0.002284039,38
1,2887,34.3501,-0.868592,-0.00907605,0,0,0,0,-0.002284039,38
1,2891,34.4101,-0.880247,-0.00987656,0,0,0,0,-0.002284039,38
1,2895,34.4702,-0.892515,-0.0108691,0,0,0,0,-0.002284039,38
1,2899,34.5302,-0.90417,-0.0120769,0,0,0,0,-0.002284039,38
1,2903,34.59024,-0.915518,-0.0136441,0,0,0,0,-0.002284039,38
1,2907,34.6503,-0.927787,-0.015896,0,0,0,0,-0.002284039,38
1,2911,34.7103,-0.938521,-0.0192796,0,0,0,0,-0.002284039,38
1,2915,34.7703,-0.946802,-0.0382524,0,0,0,0,-0.002284039,38
1,2919,34.8304,-0.955697,-0.0586852,0,0,0,0,-0.002284039,38
1,2923,34.8904,-0.964285,-0.0786334,0,0,0,0,-0.002284039,38
1,2927,34.9504,-0.972566,-0.0981644,0,0,0,0,-0.002284039,38
1,2931,35.0105,-0.98146,-0.116702,0,0,0,0,-0.002284039,38
1,2935,35.0705,-0.990968,-0.133344,0,0,0,0,-0.002284039,38
1,2939,35.1305,-1.00017,-0.149127,0,0,0,0,-0.002284039,38
1,2943,35.19056,-1.00998,-0.163524,0,0,0,0,-0.002284039,38
1,2947,35.2506,-1.01949,-0.176976,0,0,0,0,-0.002284039,38
1,2951,35.3106,-1.03268,-0.191937,0,0,0,0,-0.002284039,38
1,2955,35.3707,-1.0428,-0.20353,0,0,0,0,-0.002284039,38
1,2959,35.4307,-1.05292,-0.214633,0,0,0,0,-0.002284039,38
1,2963,35.49072,-0.974406,-0.127529,0,0,0,0,-0.002284039,38
1,2967,35.5508,-1.02164,-0.11829,0,0,0,0,-0.002284039,38
1,2971,35.6108,-1.05231,-0.113279,0,0,0,0,-0.002284039,38
1,2975,35.6708,-0.775354,-1.84024e-09,0,0,0,0,-0.002284039,38
1,2979,35.7308,-0.724134,-1.4452e-10,0,0,0,0,-0.002284039,38
1,2983,35.79088,-0.697143,1.47832e-10,0,0,0,0,-0.002284039,38
1,2987,35.8509,-0.681808,6.61259e-10,0,0,0,0,-0.002284039,38
1,2991,35.9109,-0.670153,1.04231e-09,0,0,0,0,-0.002284039,38
1,2995,35.971,-0.659112,3.35537e-10,0,0,0,0,-0.002284039,38
2,2999,36.031,-0.654205,-5.03366e-10,0,0,0,0,-0.002284039,38
2,3003,36.09104,-0.648991,-2.18375e-11,0,0,0,0,-0.002284039,38
2,3007,36.1511,-0.646537,1.69977e-09,0,0,0,0,-0.002284039,38