File: CV02.11.25/secondelectrode-1.1CV_650_FLiNaK_Ni_02_11_25_200mVperS_sh15.csv
Segment,Point,Elapsed Time (s),Potential (V),Current (A),Frequency (Hz),|Z| (ohms),Zre (ohms),Zim (ohms),Phase of Z (deg),ActionId
0,0,0.0055,-0.00122653,-2.00991e-05,0,0,0,0,-0.002284039,38
0,11,0.066,-0.0128814,-0.000153549,0,0,0,0,-0.002284039,38
0,21,0.121,-0.0242295,-0.000172823,0,0,0,0,-0.002284039,38
0,31,0.1815,-0.0361911,-0.000182981,0,0,0,0,-0.002284039,38
0,41,0.2365,-0.0469258,-0.000182613,0,0,0,0,-0.002284039,38
0,51,0.2915,-0.0576605,-0.000179546,0,0,0,0,-0.002284039,38
0,61,0.3465,-0.0693153,-0.000174945,0,0,0,0,-0.002284039,38
0,71,0.4015,-0.0806635,-0.000164333,0,0,0,0,-0.002284039,38
0,81,0.4565,-0.0913982,-0.000160101,0,0,0,0,-0.002284039,38
0,91,0.5115,-0.101826,-0.000156113,0,0,0,0,-0.002284039,38
0,101,0.5665,-0.113481,-0.000148568,0,0,0,0,-0.002284039,38
0,111,0.6215,-0.124216,-0.000149305,0,0,0,0,-0.002284039,38
0,121,0.6765,-0.135257,-0.000145992,0,0,0,0,-0.002284039,38
0,131,0.7315,-0.145992,-0.000144091,0,0,0,0,-0.002284039,38
0,141,0.7865,-0.157033,-0.000146544,0,0,0,0,-0.002284039,38
0,151,0.8415,-0.167768,-0.000150409,0,0,0,0,-0.002284039,38
0,161,0.8965,-0.179423,-0.000150041,0,0,0,0,-0.002284039,38
0,171,0.9515,-0.189851,-0.000156972,0,0,0,0,-0.002284039,38
0,181,1.0065,-0.201199,-0.000158997,0,0,0,0,-0.002284039,38
0,191,1.0615,-0.211934,-0.000164763,0,0,0,0,-0.002284039,38
0,201,1.1165,-0.222975,-0.000169731,0,0,0,0,-0.002284039,38
0,211,1.1715,-0.234017,-0.000178258,0,0,0,0,-0.002284039,38
0,222,1.232,-0.245978,-0.000182981,0,0,0,0,-0.002284039,38
0,232,1.287,-0.256713,-0.000190342,0,0,0,0,-0.002284039,38
0,242,1.342,-0.267754,-0.000196353,0,0,0,0,-0.002284039,38
0,252,1.397,-0.279102,-0.000204082,0,0,0,0,-0.002284039,38
0,263,1.4575,-0.291064,-0.000212547,0,0,0,0,-0.002284039,38
0,273,1.5125,-0.302105,-0.000218927,0,0,0,0,-0.002284039,38
0,283,1.5675,-0.313454,-0.000229294,0,0,0,0,-0.002284039,38
0,293,1.6225,-0.324495,-0.000238004,0,0,0,0,-0.002284039,38
0,304,1.683,-0.336457,-0.000247451,0,0,0,0,-0.002284039,38
0,314,1.738,-0.347498,-0.0002607,0,0,0,0,-0.002284039,38
0,324,1.793,-0.358539,-0.000265914,0,0,0,0,-0.002284039,38
0,334,1.848,-0.369274,-0.000271312,0,0,0,0,-0.002284039,38
0,345,1.9085,-0.381542,-0.000280391,0,0,0,0,-0.002284039,38
0,355,1.9635,-0.39197,-0.00028493,0,0,0,0,-0.002284039,38
0,365,2.0185,-0.403319,-0.000291003,0,0,0,0,-0.002284039,38
0,375,2.0735,-0.414053,-0.000293641,0,0,0,0,-0.002284039,38
0,386,2.134,-0.426628,-0.000295358,0,0,0,0,-0.002284039,38
0,396,2.189,-0.43767,-0.000299897,0,0,0,0,-0.002284039,38
0,406,2.244,-0.449018,-0.000303026,0,0,0,0,-0.002284039,38
0,416,2.299,-0.459753,-0.000303578,0,0,0,0,-0.002284039,38
0,427,2.3595,-0.471101,-0.000306216,0,0,0,0,-0.002284039,38
0,437,2.4145,-0.482755,-0.000305847,0,0,0,0,-0.002284039,38
0,447,2.4695,-0.493797,-0.000307197,0,0,0,0,-0.002284039,38
0,457,2.5245,-0.504838,-0.000307136,0,0,0,0,-0.002284039,38
0,467,2.5795,-0.51496,-0.000305295,0,0,0,0,-0.002284039,38
0,477,2.6345,-0.526308,-0.000306706,0,0,0,0,-0.002284039,38
0,487,2.6895,-0.537656,-0.000303087,0,0,0,0,-0.002284039,38
0,497,2.7445,-0.548391,-0.000302658,0,0,0,0,-0.002284039,38
0,507,2.7995,-0.559739,-0.000295604,0,0,0,0,-0.002284039,38
0,517,2.8545,-0.571087,-0.000294929,0,0,0,0,-0.002284039,38
0,527,2.9095,-0.581515,-0.000295604,0,0,0,0,-0.002284039,38
0,537,2.9645,-0.59317,-0.000296217,0,0,0,0,-0.002284039,38
0,547,3.0195,-0.603598,-0.000294745,0,0,0,0,-0.002284039,38
0,557,3.0745,-0.614639,-0.000303026,0,0,0,0,-0.002284039,38
0,567,3.1295,-0.625067,-0.000298977,0,0,0,0,-0.002284039,38
0,577,3.1845,-0.636722,-0.000303762,0,0,0,0,-0.002284039,38
0,587,3.2395,-0.647457,-0.000307994,0,0,0,0,-0.002284039,38
0,597,3.2945,-0.658805,-0.000317625,0,0,0,0,-0.002284039,38
0,607,3.3495,-0.669846,-0.000321612,0,0,0,0,-0.002284039,38
0,617,3.4045,-0.680581,-0.00033431,0,0,0,0,-0.002284039,38
0,627,3.4595,-0.691622,-0.000344247,0,0,0,0,-0.002284039,38
0,637,3.5145,-0.702664,-0.000355595,0,0,0,0,-0.002284039,38
0,647,3.5695,-0.713399,-0.00037504,0,0,0,0,-0.002284039,38
0,657,3.6245,-0.724747,-0.000390867,0,0,0,0,-0.002284039,38
0,667,3.6795,-0.735482,-0.00041344,0,0,0,0,-0.002284039,38
0,677,3.7345,-0.746523,-0.000431597,0,0,0,0,-0.002284039,38
0,688,3.795,-0.758178,-0.000453619,0,0,0,0,-0.002284039,38
0,698,3.85,-0.769526,-0.000463311,0,0,0,0,-0.002284039,38
0,708,3.905,-0.780567,-0.000475885,0,0,0,0,-0.002284039,38
0,718,3.96,-0.791915,-0.000479995,0,0,0,0,-0.002284039,38
0,729,4.0205,-0.80357,-0.000489871,0,0,0,0,-0.002284039,38
0,739,4.0755,-0.814305,-0.000491037,0,0,0,0,-0.002284039,38
0,749,4.1305,-0.82596,-0.000496864,0,0,0,0,-0.002284039,38
0,759,4.1855,-0.836695,-0.000497662,0,0,0,0,-0.002284039,38
0,770,4.246,-0.848963,-0.00049803,0,0,0,0,-0.002284039,38
0,780,4.301,-0.859698,-0.000502017,0,0,0,0,-0.002284039,38
0,790,4.356,-0.870739,-0.00050582,0,0,0,0,-0.002284039,38
0,801,4.4165,-0.882394,-0.000512813,0,0,0,0,-0.002284039,38
0,811,4.4715,-0.894355,-0.000521401,0,0,0,0,-0.002284039,38
0,821,4.5265,-0.904783,-0.000532319,0,0,0,0,-0.002284039,38
0,831,4.5815,-0.915518,-0.000546796,0,0,0,0,-0.002284039,38
0,842,4.642,-0.928093,-0.000563726,0,0,0,0,-0.002284039,38
0,852,4.697,-0.939135,-0.000578693,0,0,0,0,-0.002284039,38
0,862,4.752,-0.949869,-0.000596605,0,0,0,0,-0.002284039,38
0,872,4.807,-0.961217,-0.000607278,0,0,0,0,-0.002284039,38
0,883,4.8675,-0.973179,-0.000619976,0,0,0,0,-0.002284039,38
0,893,4.9225,-0.98422,-0.00062427,0,0,0,0,-0.002284039,38
0,903,4.9775,-0.995262,-0.000629055,0,0,0,0,-0.002284039,38
0,913,5.0325,-1.006,-0.000622798,0,0,0,0,-0.002284039,38
0,923,5.0875,-1.01704,-0.000622491,0,0,0,0,-0.002284039,38
0,933,5.1425,-1.02839,-0.000616664,0,0,0,0,-0.002284039,38
0,943,5.1975,-1.03881,-0.000613965,0,0,0,0,-0.002284039,38
0,953,5.2525,-1.05016,-0.000606358,0,0,0,0,-0.002284039,38
0,963,5.3075,-1.0612,-0.00059955,0,0,0,0,-0.002284039,38
0,973,5.3625,-1.07225,-0.00059317,0,0,0,0,-0.002284039,38
0,983,5.4175,-1.08298,-0.00058998,0,0,0,0,-0.002284039,38
0,993,5.4725,-1.09402,-0.000587956,0,0,0,0,-0.002284039,38
1,1003,5.572535,-1.08574,-0.00045779,0,0,0,0,-0.002284039,38
1,1014,5.732112,-1.05415,-0.00041755,0,0,0,0,-0.002284039,38
1,1024,5.877182,-1.02563,-0.000383506,0,0,0,0,-0.002284039,38
1,1034,6.022252,-0.995569,-0.000355166,0,0,0,0,-0.002284039,38
1,1044,6.167322,-0.966738,-0.000325722,0,0,0,0,-0.002284039,38
1,1054,6.312392,-0.937601,-0.000295849,0,0,0,0,-0.002284039,38
1,1064,6.457462,-0.909077,-0.000263031,0,0,0,0,-0.002284039,38
1,1074,6.602532,-0.880247,-0.000224386,0,0,0,0,-0.002284039,38
1,1084,6.747602,-0.85111,-0.000179116,0,0,0,0,-0.002284039,38
1,1094,6.892672,-0.822586,-0.000118137,0,0,0,0,-0.002284039,38
1,1104,7.037742,-0.792836,-4.99195e-05,0,0,0,0,-0.002284039,38
1,1114,7.182812,-0.764005,2.5518e-05,0,0,0,0,-0.002284039,38
1,1124,7.327882,-0.734868,0.00010666,0,0,0,0,-0.002284039,38
1,1134,7.472952,-0.706038,0.000201322,0,0,0,0,-0.002284039,38
1,1144,7.618022,-0.676901,0.000296892,0,0,0,0,-0.002284039,38
1,1154,7.763092,-0.64807,0.000375225,0,0,0,0,-0.002284039,38
1,1164,7.908162,-0.61924,0.000382463,0,0,0,0,-0.002284039,38
1,1174,8.053232,-0.589796,0.000294315,0,0,0,0,-0.002284039,38
1,1184,8.198302,-0.560966,0.000213652,0,0,0,0,-0.002284039,38
1,1194,8.343372,-0.532442,0.000164885,0,0,0,0,-0.002284039,38
1,1204,8.488442,-0.502998,0.000145992,0,0,0,0,-0.002284039,38
1,1214,8.633512,-0.474168,0.000148078,0,0,0,0,-0.002284039,38
1,1224,8.778582,-0.444417,0.000173344,0,0,0,0,-0.002284039,38
1,1234,8.923652,-0.415893,0.000220338,0,0,0,0,-0.002284039,38
1,1244,9.068722,-0.387063,0.000278673,0,0,0,0,-0.002284039,38
1,1255,9.228299,-0.355166,0.000348725,0,0,0,0,-0.002284039,38
1,1265,9.373369,-0.326335,0.000396571,0,0,0,0,-0.002284039,38
1,1275,9.518439,-0.297198,0.000387738,0,0,0,0,-0.002284039,38
1,1285,9.663509,-0.268368,0.000302842,0,0,0,0,-0.002284039,38
1,1295,9.808579,-0.239231,0.000247328,0,0,0,0,-0.002284039,38
1,1305,9.953649,-0.210094,0.000235919,0,0,0,0,-0.002284039,38
1,1315,10.0987,-0.181263,0.000232054,0,0,0,0,-0.002284039,38
1,1325,10.2438,-0.152126,0.000232177,0,0,0,0,-0.002284039,38
1,1335,10.3889,-0.122989,0.000229355,0,0,0,0,-0.002284039,38
1,1345,10.5339,-0.0935451,0.000239415,0,0,0,0,-0.002284039,38
1,1355,10.679,-0.0650214,0.000273091,0,0,0,0,-0.002284039,38
1,1365,10.8241,-0.0355776,0.000342898,0,0,0,0,-0.002284039,38
1,1375,10.9691,-0.00705395,0.000486314,0,0,0,0,-0.002284039,38
1,1385,11.1142,0.0226966,0.00075413,0,0,0,0,-0.002284039,38
1,1395,11.2593,0.0506068,0.00123971,0,0,0,0,-0.002284039,38
1,1405,11.4043,0.0794372,0.0020807,0,0,0,0,-0.002284039,38
1,1415,11.5494,0.108268,0.00353019,0,0,0,0,-0.002284039,38
1,1425,11.6945,0.137711,0.00565873,0,0,0,0,-0.002284039,38
1,1435,11.8396,0.165928,0.00859146,0,0,0,0,-0.002284039,38
1,1445,11.9846,0.194452,0.0122811,0,0,0,0,-0.002284039,38
1,1455,12.1297,0.223283,0.0159788,0,0,0,0,-0.002284039,38
1,1465,12.2748,0.251193,0.018887,0,0,0,0,-0.002284039,38
1,1475,12.4198,0.27849,0.0214142,0,0,0,0,-0.002284039,38
1,1485,12.5649,0.30824,0.022316,0,0,0,0,-0.002284039,38
1,1496,12.7245,0.340751,0.0197458,0,0,0,0,-0.002284039,38
1,1506,12.8696,0.369888,0.0154273,0,0,0,0,-0.002284039,38
1,1516,13.0146,0.400865,0.0118603,0,0,0,0,-0.002284039,38
1,1526,13.1597,0.430309,0.0104857,0,0,0,0,-0.002284039,38
1,1536,13.3048,0.45914,0.010904,0,0,0,0,-0.002284039,38
1,1546,13.4498,0.487357,0.0119321,0,0,0,0,-0.002284039,38
1,1556,13.5949,0.516494,0.0133515,0,0,0,0,-0.002284039,38
1,1566,13.74,0.545324,0.015066,0,0,0,0,-0.002284039,38
1,1576,13.885,0.574155,0.0169149,0,0,0,0,-0.002284039,38
1,1586,14.0301,0.602065,0.0187582,0,0,0,0,-0.002284039,38
1,1596,14.1752,0.630282,0.0204082,0,0,0,0,-0.002284039,38
1,1606,14.3203,0.659112,0.0223037,0,0,0,0,-0.002284039,38
1,1616,14.4653,0.687943,0.0231625,0,0,0,0,-0.002284039,38
1,1626,14.6104,0.716466,0.0240274,0,0,0,0,-0.002284039,38
1,1636,14.7555,0.745603,0.0238618,0,0,0,0,-0.002284039,38
1,1646,14.9005,0.774127,0.0256591,0,0,0,0,-0.002284039,38
1,1656,15.0456,0.803264,0.0279041,0,0,0,0,-0.002284039,38
1,1666,15.1907,0.832095,0.0280268,0,0,0,0,-0.002284039,38
1,1676,15.3357,0.861538,0.0283887,0,0,0,0,-0.002284039,38
1,1686,15.4808,0.890369,0.0296401,0,0,0,0,-0.002284039,38
1,1696,15.6259,0.917666,0.0353448,0,0,0,0,-0.002284039,38
1,1706,15.771,0.945883,0.0424788,0,0,0,0,-0.002284039,38
1,1716,15.916,0.973486,0.0499502,0,0,0,0,-0.002284039,38
1,1726,16.0611,1.0014,0.0558144,0,0,0,0,-0.002284039,38
1,1737,16.2207,1.03299,0.0623534,0,0,0,0,-0.002284039,38
1,1747,16.3657,1.06059,0.0676042,0,0,0,0,-0.002284039,38
1,1757,16.5108,1.0885,0.0733703,0,0,0,0,-0.002284039,38
1,1767,16.6559,1.11641,0.0811668,0,0,0,0,-0.002284039,38
1,1777,16.801,1.14371,0.0881535,0,0,0,0,-0.002284039,38
1,1787,16.946,1.17377,0.0846325,0,0,0,0,-0.002284039,38
1,1797,17.0911,1.20996,0.039516,0,0,0,0,-0.002284039,38
1,1807,17.2362,1.24001,0.0351547,0,0,0,0,-0.002284039,38
1,1817,17.3812,1.26731,0.0450858,0,0,0,0,-0.002284039,38
1,1827,17.5263,1.29399,0.0589122,0,0,0,0,-0.002284039,38
1,1837,17.6714,1.32037,0.0739592,0,0,0,0,-0.002284039,38
1,1847,17.8164,1.34736,0.0870433,0,0,0,0,-0.002284039,38
1,1857,17.9615,1.37558,0.0923063,0,0,0,0,-0.002284039,38
1,1867,18.1066,1.4041,0.0961586,0,0,0,0,-0.002284039,38
1,1877,18.2517,1.43324,0.0938767,0,0,0,0,-0.002284039,38
1,1887,18.3967,1.46391,0.0851723,0,0,0,0,-0.002284039,38
1,1897,18.5418,1.49243,0.0836818,0,0,0,0,-0.002284039,38
1,1907,18.6869,1.52004,0.0934534,0,0,0,0,-0.002284039,38
1,1917,18.8319,1.55255,0.0778605,0,0,0,0,-0.002284039,38
1,1927,18.977,1.58138,0.074683,0,0,0,0,-0.002284039,38
1,1937,19.1221,1.60837,0.0857735,0,0,0,0,-0.002284039,38
1,1947,19.2671,1.63689,0.0897607,0,0,0,0,-0.002284039,38
1,1957,19.4122,1.66419,0.0986,0,0,0,0,-0.002284039,38
1,1967,19.5573,1.69425,0.0924106,0,0,0,0,-0.002284039,38
1,1978,19.71686,1.72614,0.0920119,0,0,0,0,-0.002284039,38
1,1988,19.86193,1.75559,0.0912513,0,0,0,0,-0.002284039,38
1,1998,20.007,1.78258,0.0901042,0,0,0,0,-0.002284039,38
1,2008,20.15207,1.75375,0.089914,0,0,0,0,-0.002284039,38
1,2018,20.29714,1.72522,0.090006,0,0,0,0,-0.002284039,38
1,2028,20.44221,1.69609,0.08927,0,0,0,0,-0.002284039,38
1,2038,20.58728,1.66787,0.0881413,0,0,0,0,-0.002284039,38
1,2048,20.73235,1.63873,0.0865955,0,0,0,0,-0.002284039,38
1,2058,20.87742,1.61021,0.0843258,0,0,0,0,-0.002284039,38
1,2068,21.02249,1.58138,0.0811852,0,0,0,0,-0.002284039,38
1,2078,21.16756,1.55285,0.0787806,0,0,0,0,-0.002284039,38
1,2088,21.31263,1.5182,0.119407,0,0,0,0,-0.002284039,38
1,2098,21.4577,1.49121,0.0991398,0,0,0,0,-0.002284039,38
1,2108,21.60277,1.46422,0.0896503,0,0,0,0,-0.002284039,38
1,2118,21.74784,1.43692,0.0828843,0,0,0,0,-0.002284039,38
1,2128,21.89291,1.4087,0.0769649,0,0,0,0,-0.002284039,38
1,2138,22.03798,1.38018,0.07107,0,0,0,0,-0.002284039,38
1,2148,22.18305,1.35258,0.066543,0,0,0,0,-0.002284039,38
1,2158,22.32812,1.32436,0.0567529,0,0,0,0,-0.002284039,38
1,2168,22.47319,1.29675,0.0504103,0,0,0,0,-0.002284039,38
1,2178,22.61826,1.26946,0.0430922,0,0,0,0,-0.002284039,38
1,2188,22.76333,1.24155,0.0356822,0,0,0,0,-0.002284039,38
1,2198,22.9084,1.21333,0.0292352,0,0,0,0,-0.002284039,38
1,2208,23.05347,1.18603,0.0209787,0,0,0,0,-0.002284039,38
1,2219,23.213,1.15659,0.0103102,0,0,0,0,-0.002284039,38
1,2229,23.3581,1.12837,-0.000903373,0,0,0,0,-0.002284039,38
1,2239,23.5032,1.10077,-0.0146961,0,0,0,0,-0.002284039,38
1,2249,23.6483,1.07562,-0.0273827,0,0,0,0,-0.002284039,38
1,2259,23.7933,1.04832,-0.0399209,0,0,0,0,-0.002284039,38
1,2269,23.9384,1.02072,-0.0509501,0,0,0,0,-0.002284039,38
1,2279,24.0835,0.994342,-0.0608015,0,0,0,0,-0.002284039,38
1,2289,24.2285,0.966432,-0.0700885,0,0,0,0,-0.002284039,38
1,2299,24.3736,0.939135,-0.0794983,0,0,0,0,-0.002284039,38
1,2309,24.5187,0.911532,-0.0899447,0,0,0,0,-0.002284039,38
1,2319,24.6637,0.884235,-0.100348,0,0,0,0,-0.002284039,38
1,2329,24.8088,0.857244,-0.110046,0,0,0,0,-0.002284039,38
1,2339,24.9539,0.829641,-0.117965,0,0,0,0,-0.002284039,38
1,2349,25.099,0.801117,-0.122928,0,0,0,0,-0.002284039,38
1,2359,25.244,0.7729,-0.124553,0,0,0,0,-0.002284039,38
1,2369,25.3891,0.74315,-0.122437,0,0,0,0,-0.002284039,38
1,2379,25.5342,0.714933,-0.129234,0,0,0,0,-0.002284039,38
1,2389,25.6792,0.689169,-0.146311,0,0,0,0,-0.002284039,38
1,2399,25.8243,0.662486,-0.159671,0,0,0,0,-0.002284039,38
1,2409,25.9694,0.635496,-0.171056,0,0,0,0,-0.002284039,38
1,2419,26.1144,0.607892,-0.179313,0,0,0,0,-0.002284039,38
1,2429,26.2595,0.575995,-0.182061,0,0,0,0,-0.002284039,38
1,2439,26.4046,0.542871,-0.160223,0,0,0,0,-0.002284039,38
1,2449,26.5497,0.505452,-0.090601,0,0,0,0,-0.002284039,38
1,2460,26.7092,0.469261,-0.0650095,0,0,0,0,-0.002284039,38
1,2470,26.8543,0.437364,-0.0484351,0,0,0,0,-0.002284039,38
1,2480,26.9994,0.40608,-0.0360135,0,0,0,0,-0.002284039,38
1,2490,27.1444,0.376022,-0.0290942,0,0,0,0,-0.002284039,38
1,2500,27.2895,0.347192,-0.0247573,0,0,0,0,-0.002284039,38
1,2510,27.4346,0.317135,-0.0216351,0,0,0,0,-0.002284039,38
1,2520,27.5797,0.287691,-0.0191998,0,0,0,0,-0.002284039,38
1,2530,27.7247,0.25886,-0.017243,0,0,0,0,-0.002284039,38
1,2540,27.8698,0.229417,-0.0156236,0,0,0,0,-0.002284039,38
1,2550,28.0149,0.199666,-0.0140962,0,0,0,0,-0.002284039,38
1,2560,28.1599,0.169916,-0.012716,0,0,0,0,-0.002284039,38
1,2570,28.305,0.140472,-0.011515,0,0,0,0,-0.002284039,38
1,2580,28.4501,0.111948,-0.0103458,0,0,0,0,-0.002284039,38
1,2590,28.5951,0.0821976,-0.00923125,0,0,0,0,-0.002284039,38
1,2600,28.7402,0.0527538,-0.00817127,0,0,0,0,-0.002284039,38
1,2610,28.8853,0.0239234,-0.0072444,0,0,0,0,-0.002284039,38
1,2620,29.0304,-0.00490701,-0.00655493,0,0,0,0,-0.002284039,38
1,2630,29.1754,-0.0343508,-0.00602678,0,0,0,0,-0.002284039,38
1,2640,29.3205,-0.0631812,-0.0056618,0,0,0,0,-0.002284039,38
1,2650,29.4656,-0.0929317,-0.00535693,0,0,0,0,-0.002284039,38
1,2660,29.6106,-0.121455,-0.00503489,0,0,0,0,-0.002284039,38
1,2670,29.7557,-0.150286,-0.00479505,0,0,0,0,-0.002284039,38
1,2680,29.9008,-0.17881,-0.0047699,0,0,0,0,-0.002284039,38
1,2690,30.0458,-0.207947,-0.00462145,0,0,0,0,-0.002284039,38
1,2701,30.2054,-0.240151,-0.00436136,0,0,0,0,-0.002284039,38
1,2711,30.3505,-0.269288,-0.00421353,0,0,0,0,-0.002284039,38
1,2721,30.4956,-0.298118,-0.00428837,0,0,0,0,-0.002284039,38
1,2731,30.6406,-0.327255,-0.00424788,0,0,0,0,-0.002284039,38
1,2741,30.7857,-0.356392,-0.00436627,0,0,0,0,-0.002284039,38
1,2751,30.9308,-0.384916,-0.00471837,0,0,0,0,-0.002284039,38
1,2761,31.0758,-0.414053,-0.00539803,0,0,0,0,-0.002284039,38
1,2771,31.2209,-0.442884,-0.00659971,0,0,0,0,-0.002284039,38
1,2781,31.366,-0.471714,-0.00834548,0,0,0,0,-0.002284039,38
1,2791,31.5111,-0.500544,-0.0104648,0,0,0,0,-0.002284039,38
1,2801,31.6561,-0.529375,-0.0137061,0,0,0,0,-0.002284039,38
1,2811,31.8012,-0.555445,-0.0240826,0,0,0,0,-0.002284039,38
1,2821,31.9463,-0.580902,-0.0469199,0,0,0,0,-0.002284039,38
1,2831,32.0913,-0.606358,-0.0666227,0,0,0,0,-0.002284039,38
1,2841,32.2364,-0.632121,-0.0854238,0,0,0,0,-0.002284039,38
1,2851,32.3815,-0.658192,-0.102931,0,0,0,0,-0.002284039,38
1,2861,32.5265,-0.684262,-0.119131,0,0,0,0,-0.002284039,38
1,2871,32.6716,-0.710945,-0.132516,0,0,0,0,-0.002284039,38
1,2881,32.8167,-0.742842,-0.115217,0,0,0,0,-0.002284039,38
1,2891,32.9618,-0.770753,-0.122253,0,0,0,0,-0.002284039,38
1,2901,33.1068,-0.79805,-0.133957,0,0,0,0,-0.002284039,38
1,2911,33.2519,-0.82504,-0.147544,0,0,0,0,-0.002284039,38
1,2921,33.397,-0.850496,-0.161653,0,0,0,0,-0.002284039,38
1,2931,33.542,-0.8781,-0.175062,0,0,0,0,-0.002284039,38
1,2942,33.7016,-0.914598,-0.145183,0,0,0,0,-0.002284039,38
1,2952,33.8467,-0.939441,-0.168406,0,0,0,0,-0.002284039,38
1,2962,33.9917,-0.968272,-0.171884,0,0,0,0,-0.002284039,38
1,2972,34.1368,-0.998329,-0.166462,0,0,0,0,-0.002284039,38
1,2982,34.2819,-1.02869,-0.1585,0,0,0,0,-0.002284039,38
1,2992,34.427,-1.05906,-0.150225,0,0,0,0,-0.002284039,38
2,3002,34.572,-1.06396,-0.132877,0,0,0,0,-0.002284039,38
2,3012,34.7171,-1.03728,-0.119137,0,0,0,0,-0.002284039,38
2,3022,34.8622,-1.00968,-0.111199,0,0,0,0,-0.002284039,38
2,3032,35.0072,-0.981767,-0.103845,0,0,0,0,-0.002284039,38
2,3042,35.1523,-0.953856,-0.101097,0,0,0,0,-0.002284039,38
2,3052,35.2974,-0.924719,-0.0999188,0,0,0,0,-0.002284039,38
2,3062,35.4424,-0.896196,-0.0975142,0,0,0,0,-0.002284039,38
2,3072,35.5875,-0.867672,-0.0954163,0,0,0,0,-0.002284039,38
2,3082,35.7326,-0.839148,-0.0937847,0,0,0,0,-0.002284039,38
2,3092,35.8777,-0.810011,-0.091607,0,0,0,0,-0.002284039,38
2,3102,36.0227,-0.782714,-0.0807865,0,0,0,0,-0.002284039,38
2,3112,36.1678,-0.756031,-0.0691807,0,0,0,0,-0.002284039,38
2,3122,36.3129,-0.729041,-0.057121,0,0,0,0,-0.002284039,38
2,3132,36.4579,-0.702051,-0.0452699,0,0,0,0,-0.002284039,38
2,3142,36.603,-0.675367,-0.032333,0,0,0,0,-0.002284039,38
2,3152,36.7481,-0.64899,-0.018568,0,0,0,0,-0.002284039,38
2,3162,36.8931,-0.622614,-0.00444663,0,0,0,0,-0.002284039,38
2,3172,37.0382,-0.59501,0.0104722,0,0,0,0,-0.002284039,38
2,3183,37.1978,-0.566486,0.0263277,0,0,0,0,-0.002284039,38
2,3193,37.3429,-0.539803,0.0413931,0,0,0,0,-0.002284039,38
2,3203,37.4879,-0.513119,0.056802,0,0,0,0,-0.002284039,38
2,3213,37.633,-0.487663,0.0725667,0,0,0,0,-0.002284039,38
2,3223,37.7781,-0.460979,0.0883314,0,0,0,0,-0.002284039,38
2,3233,37.9231,-0.434909,0.104378,0,0,0,0,-0.002284039,38
2,3243,38.0682,-0.408226,0.120118,0,0,0,0,-0.002284039,38
2,3253,38.2133,-0.381542,0.135435,0,0,0,0,-0.002284039,38
2,3263,38.3584,-0.355779,0.150666,0,0,0,0,-0.002284039,38
2,3273,38.5034,-0.329709,0.165812,0,0,0,0,-0.002284039,38
2,3283,38.6485,-0.302719,0.181411,0,0,0,0,-0.002284039,38
2,3293,38.7936,-0.271742,0.193102,0,0,0,0,-0.002284039,38
2,3303,38.9386,-0.244751,0.204266,0,0,0,0,-0.002284039,38
2,3313,39.0837,-0.217455,0.215615,0,0,0,0,-0.002284039,38
2,3323,39.2288,-0.188931,0.217148,0,0,0,0,-0.002284039,38
2,3333,39.3738,-0.1555,0.191017,0,0,0,0,-0.002284039,38
2,3343,39.5189,-0.126056,0.186171,0,0,0,0,-0.002284039,38
2,3353,39.664,-0.097839,0.189483,0,0,0,0,-0.002284039,38
2,3363,39.8091,-0.0677818,0.184944,0,0,0,0,-0.002284039,38
2,3373,39.9541,-0.0395648,0.188134,0,0,0,0,-0.002284039,38
2,3383,40.0992,-0.0092009,0.181263,0,0,0,0,-0.002284039,38
2,3393,40.2443,0.0466197,0.00290083,0,0,0,0,-0.002284039,38
2,3403,40.3893,0.0754501,0.00205555,0,0,0,0,-0.002284039,38
2,3413,40.5344,0.104587,0.00197887,0,0,0,0,-0.002284039,38
2,3424,40.694,0.136485,0.00195433,0,0,0,0,-0.002284039,38
2,3434,40.8391,0.165622,0.00194207,0,0,0,0,-0.002284039,38
2,3444,40.9841,0.194759,0.00197028,0,0,0,0,-0.002284039,38
2,3454,41.1292,0.223896,0.00206291,0,0,0,0,-0.002284039,38
2,3464,41.2743,0.252726,0.00216412,0,0,0,0,-0.002284039,38
2,3474,41.4193,0.281557,0.00227822,0,0,0,0,-0.002284039,38
2,3484,41.5644,0.311307,0.00241746,0,0,0,0,-0.002284039,38
2,3494,41.7095,0.340138,0.00256468,0,0,0,0,-0.002284039,38
2,3504,41.8545,0.368661,0.00272539,0,0,0,0,-0.002284039,38
2,3514,41.9996,0.398105,0.00274993,0,0,0,0,-0.002284039,38
2,3524,42.1447,0.426936,0.00263645,0,0,0,0,-0.002284039,38
2,3534,42.2898,0.455766,0.00262295,0,0,0,0,-0.002284039,38
2,3544,42.4348,0.484596,0.00263093,0,0,0,0,-0.002284039,38
2,3554,42.5799,0.513733,0.00268123,0,0,0,0,-0.002284039,38
2,3564,42.725,0.542871,0.0027714,0,0,0,0,-0.002284039,38
2,3574,42.87,0.571701,0.00292537,0,0,0,0,-0.002284039,38
2,3584,43.0151,0.600225,0.00311246,0,0,0,0,-0.002284039,38
2,3594,43.1602,0.629362,0.00329403,0,0,0,0,-0.002284039,38
2,3604,43.3052,0.658192,0.00354246,0,0,0,0,-0.002284039,38
2,3614,43.4503,0.687636,0.00358294,0,0,0,0,-0.002284039,38
2,3624,43.5954,0.716466,0.00367434,0,0,0,0,-0.002284039,38
2,3634,43.7405,0.745297,0.00374795,0,0,0,0,-0.002284039,38
2,3644,43.8855,0.774434,0.00371299,0,0,0,0,-0.002284039,38
2,3654,44.0306,0.803878,0.00361607,0,0,0,0,-0.002284039,38
2,3665,44.1902,0.835468,0.00349093,0,0,0,0,-0.002284039,38
2,3675,44.3352,0.864605,0.0033842,0,0,0,0,-0.002284039,38
2,3685,44.4803,0.893129,0.00335414,0,0,0,0,-0.002284039,38
2,3695,44.6254,0.922266,0.00332592,0,0,0,0,-0.002284039,38
2,3705,44.7704,0.951097,0.00333022,0,0,0,0,-0.002284039,38
2,3715,44.9155,0.980847,0.0033431,0,0,0,0,-0.002284039,38
2,3725,45.0606,1.00998,0.00337193,0,0,0,0,-0.002284039,38
2,3735,45.2057,1.03851,0.003421,0,0,0,0,-0.002284039,38
2,3745,45.3507,1.06765,0.00347192,0,0,0,0,-0.002284039,38
2,3755,45.4958,1.0974,0.00348786,0,0,0,0,-0.002284039,38
2,3765,45.6409,1.12592,0.00352222,0,0,0,0,-0.002284039,38
2,3775,45.7859,1.15475,0.00354491,0,0,0,0,-0.002284039,38
2,3785,45.931,1.18389,0.00357804,0,0,0,0,-0.002284039,38
2,3795,46.0761,1.21302,0.0036909,0,0,0,0,-0.002284039,38
2,3805,46.2211,1.24155,0.00381113,0,0,0,0,-0.002284039,38
2,3815,46.3662,1.2713,0.00399209,0,0,0,0,-0.002284039,38
2,3825,46.5113,1.29952,0.00427671,0,0,0,0,-0.002284039,38
2,3835,46.6564,1.32865,0.00471714,0,0,0,0,-0.002284039,38
2,3845,46.8014,1.35687,0.00542502,0,0,0,0,-0.002284039,38
2,3855,46.9465,1.38601,0.00674815,0,0,0,0,-0.002284039,38
2,3865,47.0916,1.41453,0.00871537,0,0,0,0,-0.002284039,38
2,3875,47.2366,1.44336,0.0117119,0,0,0,0,-0.002284039,38
2,3885,47.3817,1.4725,0.0158389,0,0,0,0,-0.002284039,38
2,3895,47.5268,1.49949,0.0204512,0,0,0,0,-0.002284039,38
2,3906,47.6864,1.53046,0.0268491,0,0,0,0,-0.002284039,38
2,3916,47.8314,1.55807,0.0335843,0,0,0,0,-0.002284039,38
2,3926,47.9765,1.58598,0.040976,0,0,0,0,-0.002284039,38
2,3936,48.1216,1.61358,0.048889,0,0,0,0,-0.002284039,38
2,3946,48.2666,1.64149,0.0574093,0,0,0,0,-0.002284039,38
2,3956,48.4117,1.66787,0.0659787,0,0,0,0,-0.002284039,38
2,3966,48.5568,1.69639,0.0748241,0,0,0,0,-0.002284039,38
2,3976,48.7018,1.72277,0.0843811,0,0,0,0,-0.002284039,38
2,3986,48.8469,1.75037,0.0939319,0,0,0,0,-0.002284039,38
2,3996,48.992,1.77859,0.103538,0,0,0,0,-0.002284039,38
2,4006,49.1371,1.75804,0.0888651,0,0,0,0,-0.002284039,38
2,4016,49.2821,1.73197,0.0728121,0,0,0,0,-0.002284039,38
2,4026,49.4272,1.7059,0.057716,0,0,0,0,-0.002284039,38
2,4036,49.5723,1.6786,0.0433376,0,0,0,0,-0.002284039,38
2,4046,49.7173,1.65223,0.0294561,0,0,0,0,-0.002284039,38
2,4056,49.8624,1.62585,0.0166296,0,0,0,0,-0.002284039,38
2,4066,50.0075,1.59886,0.00393627,0,0,0,0,-0.002284039,38
2,4076,50.1525,1.57156,-0.00884848,0,0,0,0,-0.002284039,38
2,4086,50.2976,1.54488,-0.0196844,0,0,0,0,-0.002284039,38
2,4096,50.4427,1.51758,-0.0298671,0,0,0,0,-0.002284039,38
2,4106,50.5878,1.48967,-0.0388229,0,0,0,0,-0.002284039,38
2,4116,50.7328,1.4633,-0.0467666,0,0,0,0,-0.002284039,38
2,4126,50.8779,1.43447,-0.0531829,0,0,0,0,-0.002284039,38
2,4136,51.023,1.40594,-0.0567591,0,0,0,0,-0.002284039,38
2,4147,51.1825,1.37374,-0.0539312,0,0,0,0,-0.002284039,38
2,4157,51.3276,1.34153,-0.0390989,0,0,0,0,-0.002284039,38
2,4167,51.4727,1.30994,-0.0235612,0,0,0,0,-0.002284039,38
2,4177,51.6178,1.28081,-0.0172798,0,0,0,0,-0.002284039,38
2,4187,51.7628,1.25075,-0.0139981,0,0,0,0,-0.002284039,38
2,4197,51.9079,1.22038,-0.0116591,0,0,0,0,-0.002284039,38
2,4207,52.053,1.19155,-0.00989312,0,0,0,0,-0.002284039,38
2,4217,52.198,1.16242,-0.00845405,0,0,0,0,-0.002284039,38
2,4227,52.3431,1.13297,-0.0072855,0,0,0,0,-0.002284039,38
2,4237,52.4882,1.10414,-0.00629729,0,0,0,0,-0.002284039,38
2,4247,52.6332,1.07501,-0.00545262,0,0,0,0,-0.002284039,38
2,4257,52.7783,1.04587,-0.00466991,0,0,0,0,-0.002284039,38
2,4267,52.9234,1.01704,-0.00399148,0,0,0,0,-0.002284039,38
2,4277,53.0685,0.987595,-0.00339094,0,0,0,0,-0.002284039,38
2,4287,53.2135,0.958458,-0.00290635,0,0,0,0,-0.002284039,38
2,4297,53.3586,0.929934,-0.00247696,0,0,0,0,-0.002284039,38
2,4307,53.5037,0.900797,-0.00210278,0,0,0,0,-0.002284039,38
2,4317,53.6487,0.871046,-0.00179362,0,0,0,0,-0.002284039,38
2,4327,53.7938,0.842523,-0.0015047,0,0,0,0,-0.002284039,38
2,4337,53.9389,0.813385,-0.00127185,0,0,0,0,-0.002284039,38
2,4347,54.0839,0.784555,-0.00107629,0,0,0,0,-0.002284039,38
2,4357,54.229,0.755725,-0.000947968,0,0,0,0,-0.002284039,38
2,4367,54.3741,0.726281,-0.000858655,0,0,0,0,-0.002284039,38
2,4377,54.5192,0.697451,-0.000806331,0,0,0,0,-0.002284039,38
2,4388,54.67873,0.66586,-0.000867611,0,0,0,0,-0.002284039,38
2,4398,54.8238,0.636416,-0.000959807,0,0,0,0,-0.002284039,38
2,4408,54.96887,0.607586,-0.000989312,0,0,0,0,-0.002284039,38
2,4418,55.11394,0.578448,-0.000903925,0,0,0,0,-0.002284039,38
2,4428,55.25901,0.549311,-0.000283397,0,0,0,0,-0.002284039,38
2,4438,55.40408,0.521401,0.000136625,0,0,0,0,-0.002284039,38
2,4448,55.54915,0.491344,-2.00991e-05,0,0,0,0,-0.002284039,38
2,4458,55.69422,0.462513,-0.000350381,0,0,0,0,-0.002284039,38
2,4468,55.83929,0.433683,-0.000535632,0,0,0,0,-0.002284039,38
2,4478,55.98436,0.404546,-0.000661872,0,0,0,0,-0.002284039,38
2,4488,56.12943,0.375409,-0.000757197,0,0,0,0,-0.002284039,38
2,4498,56.2745,0.346578,-0.000855281,0,0,0,0,-0.002284039,38
2,4508,56.41957,0.317441,-0.000967229,0,0,0,0,-0.002284039,38
2,4518,56.56464,0.288918,-0.00108905,0,0,0,0,-0.002284039,38
2,4528,56.70971,0.259167,-0.00118701,0,0,0,0,-0.002284039,38
2,4538,56.85478,0.230337,-0.00124964,0,0,0,0,-0.002284039,38
2,4548,56.99985,0.2012,-0.0012559,0,0,0,0,-0.002284039,38
2,4558,57.14492,0.172676,-0.00127688,0,0,0,0,-0.002284039,38
2,4568,57.28999,0.143539,-0.00129565,0,0,0,0,-0.002284039,38
2,4578,57.43506,0.115015,-0.0013262,0,0,0,0,-0.002284039,38
2,4588,57.58013,0.0858781,-0.00136779,0,0,0,0,-0.002284039,38
2,4598,57.7252,0.056741,-0.00141103,0,0,0,0,-0.002284039,38
2,4608,57.87027,0.0276039,-0.0014395,0,0,0,0,-0.002284039,38
2,4618,58.01534,-0.00153324,-0.00144066,0,0,0,0,-0.002284039,38
2,4629,58.1749,-0.0334307,-0.00140373,0,0,0,0,-0.002284039,38
2,4639,58.32,-0.0625678,-0.00135558,0,0,0,0,-0.002284039,38
2,4649,58.4651,-0.0920116,-0.00132344,0,0,0,0,-0.002284039,38
2,4659,58.6101,-0.120535,-0.00131694,0,0,0,0,-0.002284039,38
2,4669,58.7552,-0.149059,-0.00132669,0,0,0,0,-0.002284039,38
2,4679,58.9003,-0.178196,-0.00135803,0,0,0,0,-0.002284039,38
2,4689,59.0453,-0.207026,-0.00138337,0,0,0,0,-0.002284039,38
2,4699,59.1904,-0.23647,-0.00143649,0,0,0,0,-0.002284039,38
2,4709,59.3355,-0.265607,-0.00152353,0,0,0,0,-0.002284039,38
2,4719,59.4805,-0.294744,-0.00163824,0,0,0,0,-0.002284039,38
2,4729,59.6256,-0.322961,-0.00171964,0,0,0,0,-0.002284039,38
2,4739,59.7707,-0.352405,-0.00177276,0,0,0,0,-0.002284039,38
2,4749,59.9158,-0.381542,-0.00182613,0,0,0,0,-0.002284039,38
2,4759,60.0608,-0.410679,-0.00187582,0,0,0,0,-0.002284039,38
2,4769,60.2059,-0.439203,-0.00193286,0,0,0,0,-0.002284039,38
2,4779,60.351,-0.468647,-0.00199727,0,0,0,0,-0.002284039,38
2,4789,60.496,-0.498091,-0.00207027,0,0,0,0,-0.002284039,38
2,4799,60.6411,-0.526308,-0.00216657,0,0,0,0,-0.002284039,38
2,4809,60.7862,-0.555138,-0.00225981,0,0,0,0,-0.002284039,38
2,4819,60.9312,-0.584582,-0.00238433,0,0,0,0,-0.002284039,38
2,4829,61.0763,-0.613412,-0.00254566,0,0,0,0,-0.002284039,38
2,4839,61.2214,-0.642243,-0.0027303,0,0,0,0,-0.002284039,38
2,4849,61.3665,-0.67138,-0.00297689,0,0,0,0,-0.002284039,38
2,4859,61.5115,-0.70021,-0.0032793,0,0,0,0,-0.002284039,38
2,4870,61.6711,-0.732108,-0.00368968,0,0,0,0,-0.002284039,38
2,4880,61.8162,-0.761552,-0.00416568,0,0,0,0,-0.002284039,38
2,4890,61.9612,-0.790075,-0.00474781,0,0,0,0,-0.002284039,38
2,4900,62.1063,-0.818599,-0.00546919,0,0,0,0,-0.002284039,38
2,4910,62.2514,-0.847736,-0.00634821,0,0,0,0,-0.002284039,38
2,4920,62.3965,-0.876566,-0.00742904,0,0,0,0,-0.002284039,38
2,4930,62.5415,-0.905704,-0.008781,0,0,0,0,-0.002284039,38
2,4940,62.6866,-0.934227,-0.0106587,0,0,0,0,-0.002284039,38
2,4950,62.8317,-0.963058,-0.0135546,0,0,0,0,-0.002284039,38
2,4960,62.9767,-0.988821,-0.0286832,0,0,0,0,-0.002284039,38
2,4970,63.1218,-1.01213,-0.0590655,0,0,0,0,-0.002284039,38
2,4980,63.2669,-1.03667,-0.0888958,0,0,0,0,-0.002284039,38
2,4990,63.4119,-1.06059,-0.118812,0,0,0,0,-0.002284039,38
3,5000,63.557,-1.06734,-0.139128,0,0,0,0,-0.002284039,38
3,5010,63.7021,-1.03881,-0.136766,0,0,0,0,-0.002284039,38
3,5020,63.8472,-1.00998,-0.132785,0,0,0,0,-0.002284039,38
3,5030,63.9922,-0.98238,-0.127056,0,0,0,0,-0.002284039,38
3,5040,64.1373,-0.95447,-0.119787,0,0,0,0,-0.002284039,38
3,5050,64.2824,-0.926866,-0.111439,0,0,0,0,-0.002284039,38
3,5060,64.4274,-0.899876,-0.101741,0,0,0,0,-0.002284039,38
3,5070,64.5725,-0.872273,-0.0911286,0,0,0,0,-0.002284039,38
3,5080,64.7176,-0.845282,-0.0795903,0,0,0,0,-0.002284039,38
3,5090,64.8626,-0.818292,-0.0678373,0,0,0,0,-0.002284039,38
3,5100,65.0077,-0.791302,-0.0555261,0,0,0,0,-0.002284039,38
3,5111,65.1673,-0.761858,-0.042031,0,0,0,0,-0.002284039,38
3,5121,65.3124,-0.735175,-0.030094,0,0,0,0,-0.002284039,38
3,5131,65.4574,-0.708185,-0.0163843,0,0,0,0,-0.002284039,38
3,5141,65.6025,-0.682115,-0.00319159,0,0,0,0,-0.002284039,38
3,5151,65.7476,-0.654204,0.0115935,0,0,0,0,-0.002284039,38
3,5161,65.8926,-0.629054,0.0256345,0,0,0,0,-0.002284039,38
3,5171,66.0377,-0.601451,0.0402215,0,0,0,0,-0.002284039,38
3,5181,66.1828,-0.575381,0.0549188,0,0,0,0,-0.002284039,38
3,5191,66.3279,-0.549004,0.0695242,0,0,0,0,-0.002284039,38
3,5201,66.4729,-0.522014,0.0838719,0,0,0,0,-0.002284039,38
3,5211,66.618,-0.49349,0.0853073,0,0,0,0,-0.002284039,38
3,5221,66.7631,-0.464967,0.0876137,0,0,0,0,-0.002284039,38
3,5231,66.9081,-0.437363,0.0948091,0,0,0,0,-0.002284039,38
3,5241,67.0532,-0.408533,0.0978577,0,0,0,0,-0.002284039,38
3,5251,67.1983,-0.376635,0.0802589,0,0,0,0,-0.002284039,38
3,5261,67.3433,-0.343818,0.057992,0,0,0,0,-0.002284039,38
3,5271,67.4884,-0.313147,0.0496803,0,0,0,0,-0.002284039,38
3,5281,67.6335,-0.285237,0.0528455,0,0,0,0,-0.002284039,38
3,5291,67.7786,-0.257633,0.0618504,0,0,0,0,-0.002284039,38
3,5301,67.9236,-0.230643,0.0714871,0,0,0,0,-0.002284039,38
3,5311,68.0687,-0.201812,0.0728244,0,0,0,0,-0.002284039,38
3,5321,68.2138,-0.159794,-0.000397062,0,0,0,0,-0.002284039,38
3,5331,68.3588,-0.130963,-0.000186968,0,0,0,0,-0.002284039,38
3,5341,68.5039,-0.102133,0.000177515,0,0,0,0,-0.002284039,38
3,5352,68.6635,-0.0699288,0.000542012,0,0,0,0,-0.002284039,38
3,5362,68.8085,-0.0414051,0.000805043,0,0,0,0,-0.002284039,38
3,5372,68.9536,-0.012268,0.0010255,0,0,0,0,-0.002284039,38
3,5382,69.0987,0.0165624,0.00120873,0,0,0,0,-0.002284039,38
3,5392,69.2438,0.0456995,0.00123302,0,0,0,0,-0.002284039,38
3,5402,69.3888,0.0745299,0.00148575,0,0,0,0,-0.002284039,38
3,5412,69.5339,0.103667,0.0017086,0,0,0,0,-0.002284039,38
3,5422,69.679,0.132497,0.00185312,0,0,0,0,-0.002284039,38
3,5432,69.824,0.161328,0.00200525,0,0,0,0,-0.002284039,38
3,5442,69.9691,0.189852,0.00220154,0,0,0,0,-0.002284039,38
3,5452,70.1142,0.219909,0.00237697,0,0,0,0,-0.002284039,38
3,5462,70.2592,0.248432,0.00251745,0,0,0,0,-0.002284039,38
3,5472,70.4043,0.277876,0.00271742,0,0,0,0,-0.002284039,38
3,5482,70.5494,0.306707,0.00295358,0,0,0,0,-0.002284039,38
3,5492,70.6945,0.33523,0.0031192,0,0,0,0,-0.002284039,38
3,5502,70.8395,0.364367,0.0032057,0,0,0,0,-0.002284039,38
3,5512,70.9846,0.393811,0.00312779,0,0,0,0,-0.002284039,38
3,5522,71.1297,0.422642,0.00301247,0,0,0,0,-0.002284039,38
3,5532,71.2747,0.451779,0.00277017,0,0,0,0,-0.002284039,38
3,5542,71.4198,0.480609,0.00261314,0,0,0,0,-0.002284039,38
3,5552,71.5649,0.50944,0.00261375,0,0,0,0,-0.002284039,38
3,5562,71.7099,0.538577,0.00269718,0,0,0,0,-0.002284039,38
3,5572,71.855,0.567407,0.0027487,0,0,0,0,-0.002284039,38
3,5582,72.0001,0.596544,0.00276036,0,0,0,0,-0.002284039,38
3,5593,72.1597,0.628442,0.00277937,0,0,0,0,-0.002284039,38
3,5604,72.3192,0.660032,0.0027941,0,0,0,0,-0.002284039,38
3,5614,72.4643,0.689169,0.0027622,0,0,0,0,-0.002284039,38
3,5624,72.6094,0.718307,0.00277937,0,0,0,0,-0.002284039,38
3,5634,72.7545,0.74683,0.00282354,0,0,0,0,-0.002284039,38
3,5644,72.8995,0.776274,0.00294929,0,0,0,0,-0.002284039,38
3,5654,73.0446,0.805411,0.00321858,0,0,0,0,-0.002284039,38
3,5664,73.1897,0.833628,0.00369704,0,0,0,0,-0.002284039,38
3,5674,73.3347,0.863072,0.00445092,0,0,0,0,-0.002284039,38
3,5684,73.4798,0.891902,0.00539006,0,0,0,0,-0.002284039,38
3,5694,73.6249,0.921039,0.00629423,0,0,0,0,-0.002284039,38
3,5704,73.7699,0.951097,0.00698922,0,0,0,0,-0.002284039,38
3,5714,73.915,0.979007,0.00733274,0,0,0,0,-0.002284039,38
3,5724,74.0601,1.00753,0.00754682,0,0,0,0,-0.002284039,38
3,5734,74.2052,1.03667,0.00760264,0,0,0,0,-0.002284039,38
3,5744,74.3502,1.06519,0.00769772,0,0,0,0,-0.002284039,38
3,5754,74.4953,1.09525,0.00806883,0,0,0,0,-0.002284039,38
3,5764,74.6404,1.12408,0.00856631,0,0,0,0,-0.002284039,38
3,5774,74.7854,1.1526,0.00873684,0,0,0,0,-0.002284039,38
3,5784,74.9305,1.18235,0.00879818,0,0,0,0,-0.002284039,38
3,5794,75.0756,1.21118,0.00929627,0,0,0,0,-0.002284039,38
3,5804,75.2206,1.2394,0.00996489,0,0,0,0,-0.002284039,38
3,5814,75.3657,1.26854,0.0103814,0,0,0,0,-0.002284039,38
3,5824,75.5108,1.29798,0.0109145,0,0,0,0,-0.002284039,38
3,5835,75.6704,1.32927,0.01178,0,0,0,0,-0.002284039,38
3,5846,75.8299,1.36147,0.0134331,0,0,0,0,-0.002284039,38
3,5856,75.975,1.38999,0.0146636,0,0,0,0,-0.002284039,38
3,5866,76.1201,1.41882,0.0156868,0,0,0,0,-0.002284039,38
3,5876,76.2651,1.44765,0.0170204,0,0,0,0,-0.002284039,38
3,5886,76.4102,1.47526,0.0206536,0,0,0,0,-0.002284039,38
3,5896,76.5553,1.50347,0.0264013,0,0,0,0,-0.002284039,38
3,5906,76.7004,1.53108,0.0326397,0,0,0,0,-0.002284039,38
3,5916,76.8454,1.55868,0.0397737,0,0,0,0,-0.002284039,38
3,5926,76.9905,1.5869,0.0474536,0,0,0,0,-0.002284039,38
3,5936,77.1356,1.61358,0.0558574,0,0,0,0,-0.002284039,38
3,5946,77.2806,1.64149,0.0641568,0,0,0,0,-0.002284039,38
3,5956,77.4257,1.6694,0.0722477,0,0,0,0,-0.002284039,38
3,5966,77.5708,1.69731,0.0808539,0,0,0,0,-0.002284039,38
3,5976,77.7158,1.7243,0.08973,0,0,0,0,-0.002284039,38
3,5986,77.8609,1.75129,0.0988392,0,0,0,0,-0.002284039,38
3,5996,78.006,1.77982,0.105673,0,0,0,0,-0.002284039,38
3,6006,78.1511,1.75712,0.0880983,0,0,0,0,-0.002284039,38
3,6016,78.2961,1.73044,0.0716221,0,0,0,0,-0.002284039,38
3,6026,78.4412,1.70406,0.0563972,0,0,0,0,-0.002284039,38
3,6036,78.5863,1.67768,0.0414299,0,0,0,0,-0.002284039,38
3,6046,78.7313,1.65069,0.0280943,0,0,0,0,-0.002284039,38
3,6056,78.8764,1.62401,0.0158935,0,0,0,0,-0.002284039,38
3,6066,79.0215,1.59671,0.00415035,0,0,0,0,-0.002284039,38
3,6076,79.1665,1.5685,-0.0074959,0,0,0,0,-0.002284039,38
3,6087,79.3261,1.53997,-0.0187643,0,0,0,0,-0.002284039,38
3,6097,79.4712,1.51268,-0.0291003,0,0,0,0,-0.002284039,38
3,6107,79.6163,1.48507,-0.0377862,0,0,0,0,-0.002284039,38
3,6117,79.7613,1.45686,-0.0456624,0,0,0,0,-0.002284039,38
3,6127,79.9064,1.42895,-0.0516432,0,0,0,0,-0.002284039,38
3,6137,80.0515,1.40042,-0.0543116,0,0,0,0,-0.002284039,38
3,6147,80.1965,1.37159,-0.0520235,0,0,0,0,-0.002284039,38
3,6157,80.3416,1.34061,-0.04116,0,0,0,0,-0.002284039,38
3,6167,80.4867,1.30933,-0.0281127,0,0,0,0,-0.002284039,38
3,6177,80.6318,1.27958,-0.0213958,0,0,0,0,-0.002284039,38
3,6187,80.7768,1.24922,-0.0177154,0,0,0,0,-0.002284039,38
3,6197,80.9219,1.22038,-0.0150286,0,0,0,0,-0.002284039,38
3,6207,81.067,1.19002,-0.012632,0,0,0,0,-0.002284039,38
3,6217,81.212,1.16058,-0.0106108,0,0,0,0,-0.002284039,38
3,6227,81.3571,1.13175,-0.00892577,0,0,0,0,-0.002284039,38
3,6237,81.5022,1.1023,-0.0074867,0,0,0,0,-0.002284039,38
3,6247,81.6472,1.07378,-0.00623718,0,0,0,0,-0.002284039,38
3,6257,81.7923,1.04434,-0.00522014,0,0,0,0,-0.002284039,38
3,6267,81.9374,1.01489,-0.00432824,0,0,0,0,-0.002284039,38
3,6277,82.0825,0.986061,-0.00360319,0,0,0,0,-0.002284039,38
3,6287,82.2275,0.957231,-0.00343327,0,0,0,0,-0.002284039,38
3,6297,82.3726,0.927787,-0.00333022,0,0,0,0,-0.002284039,38
3,6307,82.5177,0.89865,-0.00305786,0,0,0,0,-0.002284039,38
3,6317,82.6627,0.870126,-0.00277201,0,0,0,0,-0.002284039,38
3,6328,82.82231,0.837922,-0.00249966,0,0,0,0,-0.002284039,38
3,6338,82.96738,0.808478,-0.00225122,0,0,0,0,-0.002284039,38
3,6348,83.11245,0.779954,-0.00203776,0,0,0,0,-0.002284039,38
3,6358,83.25752,0.751124,-0.00185557,0,0,0,0,-0.002284039,38
3,6368,83.40259,0.72168,-0.00168688,0,0,0,0,-0.002284039,38
3,6378,83.54766,0.69285,-0.00155132,0,0,0,0,-0.002284039,38
3,6388,83.69273,0.663406,-0.00141392,0,0,0,0,-0.002284039,38
3,6398,83.8378,0.634882,-0.0013078,0,0,0,0,-0.002284039,38
3,6408,83.98287,0.606052,-0.00118082,0,0,0,0,-0.002284039,38
3,6418,84.12794,0.576915,-0.00107617,0,0,0,0,-0.002284039,38
3,6428,84.27301,0.548084,-0.000976492,0,0,0,0,-0.002284039,38
3,6438,84.41808,0.518641,-0.000910488,0,0,0,0,-0.002284039,38
3,6448,84.56315,0.48981,-0.000934043,0,0,0,0,-0.002284039,38
3,6458,84.70822,0.460367,-0.000872518,0,0,0,0,-0.002284039,38
3,6468,84.85329,0.431843,-0.000815655,0,0,0,0,-0.002284039,38
3,6478,84.99836,0.402706,-0.000770569,0,0,0,0,-0.002284039,38
3,6488,85.14343,0.373569,-0.000739285,0,0,0,0,-0.002284039,38
3,6498,85.2885,0.344738,-0.000713276,0,0,0,0,-0.002284039,38
3,6508,85.43357,0.315908,-0.000700763,0,0,0,0,-0.002284039,38
3,6518,85.57864,0.286464,-0.00068647,0,0,0,0,-0.002284039,38
3,6528,85.72371,0.257634,-0.00067322,0,0,0,0,-0.002284039,38
3,6538,85.86878,0.228497,-0.000663222,0,0,0,0,-0.002284039,38
3,6548,86.01385,0.199666,-0.000671748,0,0,0,0,-0.002284039,38
3,6558,86.15892,0.170529,-0.000694997,0,0,0,0,-0.002284039,38
3,6569,86.3185,0.138325,-0.000736709,0,0,0,0,-0.002284039,38
3,6579,86.4636,0.109801,-0.000780322,0,0,0,0,-0.002284039,38
3,6589,86.6086,0.0809708,-0.000849515,0,0,0,0,-0.002284039,38
3,6599,86.7537,0.0518337,-0.000970357,0,0,0,0,-0.002284039,38
3,6609,86.8988,0.0223899,-0.0010877,0,0,0,0,-0.002284039,38
3,6619,87.0438,-0.00644054,-0.00117254,0,0,0,0,-0.002284039,38
3,6629,87.1889,-0.0352709,-0.00121247,0,0,0,0,-0.002284039,38
3,6639,87.334,-0.0637946,-0.00123063,0,0,0,0,-0.002284039,38
3,6649,87.4791,-0.0935451,-0.00124241,0,0,0,0,-0.002284039,38
3,6659,87.6241,-0.122682,-0.00127743,0,0,0,0,-0.002284039,38
3,6669,87.7692,-0.151206,-0.00133975,0,0,0,0,-0.002284039,38
3,6679,87.9143,-0.180343,-0.00142827,0,0,0,0,-0.002284039,38
3,6689,88.0593,-0.209173,-0.00148403,0,0,0,0,-0.002284039,38
3,6699,88.2044,-0.238004,-0.00148857,0,0,0,0,-0.002284039,38
3,6709,88.3495,-0.267141,-0.00145943,0,0,0,0,-0.002284039,38
3,6719,88.4945,-0.296891,-0.00142293,0,0,0,0,-0.002284039,38
3,6729,88.6396,-0.325415,-0.00141109,0,0,0,0,-0.002284039,38
3,6739,88.7847,-0.354552,-0.00141698,0,0,0,0,-0.002284039,38
3,6749,88.9298,-0.383076,-0.00143373,0,0,0,0,-0.002284039,38
3,6759,89.0748,-0.41252,-0.00147348,0,0,0,0,-0.002284039,38
3,6769,89.2199,-0.440737,-0.00155052,0,0,0,0,-0.002284039,38
3,6779,89.365,-0.470181,-0.0016472,0,0,0,0,-0.002284039,38
3,6789,89.51,-0.499624,-0.00174436,0,0,0,0,-0.002284039,38
3,6799,89.6551,-0.527841,-0.00182429,0,0,0,0,-0.002284039,38
3,6810,89.8147,-0.560045,-0.00190097,0,0,0,0,-0.002284039,38
3,6820,89.9598,-0.589183,-0.00197948,0,0,0,0,-0.002284039,38
3,6830,90.1048,-0.61832,-0.00206904,0,0,0,0,-0.002284039,38
3,6840,90.2499,-0.64715,-0.0021905,0,0,0,0,-0.002284039,38
3,6850,90.395,-0.675981,-0.00233219,0,0,0,0,-0.002284039,38
3,6860,90.54,-0.705424,-0.00251806,0,0,0,0,-0.002284039,38
3,6870,90.6851,-0.733641,-0.00275668,0,0,0,0,-0.002284039,38
3,6880,90.8302,-0.763085,-0.00305479,0,0,0,0,-0.002284039,38
3,6890,90.9752,-0.792222,-0.00341057,0,0,0,0,-0.002284039,38
3,6900,91.1203,-0.821053,-0.00387309,0,0,0,0,-0.002284039,38
3,6910,91.2654,-0.849883,-0.00445951,0,0,0,0,-0.002284039,38
3,6920,91.4105,-0.878713,-0.00516309,0,0,0,0,-0.002284039,38
3,6930,91.5555,-0.907544,-0.00602617,0,0,0,0,-0.002284039,38
3,6940,91.7006,-0.936988,-0.00714074,0,0,0,0,-0.002284039,38
3,6950,91.8457,-0.965205,-0.00844056,0,0,0,0,-0.002284039,38
3,6960,91.9907,-0.994342,-0.0100692,0,0,0,0,-0.002284039,38
3,6970,92.1358,-1.02287,-0.0121824,0,0,0,0,-0.002284039,38
3,6980,92.2809,-1.0517,-0.0151347,0,0,0,0,-0.002284039,38
3,6990,92.4259,-1.07654,-0.0340873,0,0,0,0,-0.002284039,38
4,7000,92.5356,-1.07102,-0.0492325,0,0,0,0,-0.002284039,38
4,7010,92.61,-1.05599,-0.045871,0,0,0,0,-0.002284039,38
4,7020,92.6843,-1.04188,-0.0425095,0,0,0,0,-0.002284039,38
4,7030,92.7586,-1.02716,-0.03924,0,0,0,0,-0.002284039,38
4,7040,92.8329,-1.01336,-0.0359644,0,0,0,0,-0.002284039,38
4,7050,92.9072,-0.999249,-0.0326397,0,0,0,0,-0.002284039,38
4,7060,92.9816,-0.984527,-0.0294315,0,0,0,0,-0.002284039,38
4,7070,93.0559,-0.970112,-0.0263338,0,0,0,0,-0.002284039,38
4,7080,93.1302,-0.95631,-0.0232299,0,0,0,0,-0.002284039,38
4,7090,93.2045,-0.941588,-0.0201445,0,0,0,0,-0.002284039,38
4,7100,93.2788,-0.92748,-0.0169425,0,0,0,0,-0.002284039,38
4,7110,93.3532,-0.913371,-0.0139889,0,0,0,0,-0.002284039,38
4,7120,93.4275,-0.898956,-0.010463,0,0,0,0,-0.002284039,38
4,7130,93.5018,-0.884848,-0.00685795,0,0,0,0,-0.002284039,38
4,7140,93.5761,-0.870126,-0.00311982,0,0,0,0,-0.002284039,38
4,7151,93.6579,-0.85479,0.0011158,0,0,0,0,-0.002284039,38
4,7161,93.7322,-0.840068,0.00528578,0,0,0,0,-0.002284039,38
4,7171,93.8065,-0.825346,0.00934412,0,0,0,0,-0.002284039,38
4,7181,93.8808,-0.810931,0.0135963,0,0,0,0,-0.002284039,38
4,7191,93.9552,-0.79713,0.0183251,0,0,0,0,-0.002284039,38
4,7202,94.0369,-0.782408,0.0227699,0,0,0,0,-0.002284039,38
4,7212,94.1112,-0.768299,0.0275606,0,0,0,0,-0.002284039,38
4,7222,94.1855,-0.754191,0.0324925,0,0,0,0,-0.002284039,38
4,7232,94.2599,-0.740082,0.0373446,0,0,0,0,-0.002284039,38
4,7242,94.3342,-0.72536,0.0372464,0,0,0,0,-0.002284039,38
4,7252,94.4085,-0.703891,-0.00372709,0,0,0,0,-0.002284039,38
4,7262,94.4828,-0.689169,-0.00319159,0,0,0,0,-0.002284039,38
4,7272,94.5571,-0.674447,-0.00266282,0,0,0,0,-0.002284039,38
4,7282,94.6315,-0.659418,-0.00227085,0,0,0,0,-0.002284039,38
4,7292,94.7058,-0.64439,-0.00197519,0,0,0,0,-0.002284039,38
4,7302,94.7801,-0.629975,-0.00174761,0,0,0,0,-0.002284039,38
4,7312,94.8544,-0.614639,-0.00156482,0,0,0,0,-0.002284039,38
4,7322,94.9287,-0.600224,-0.00142802,0,0,0,0,-0.002284039,38
4,7332,95.0031,-0.585502,-0.00130945,0,0,0,0,-0.002284039,38
4,7342,95.0774,-0.57078,-0.00121873,0,0,0,0,-0.002284039,38
4,7352,95.1517,-0.555445,-0.00113303,0,0,0,0,-0.002284039,38
4,7362,95.226,-0.540416,-0.00106556,0,0,0,0,-0.002284039,38
4,7372,95.3003,-0.525388,-0.00100452,0,0,0,0,-0.002284039,38
4,7382,95.3747,-0.511279,-0.000947968,0,0,0,0,-0.002284039,38
4,7392,95.449,-0.495637,-0.000894969,0,0,0,0,-0.002284039,38
4,7402,95.5233,-0.481529,-0.00084381,0,0,0,0,-0.002284039,38
4,7412,95.5976,-0.4665,-0.000785229,0,0,0,0,-0.002284039,38
4,7422,95.6719,-0.451471,-0.000737935,0,0,0,0,-0.002284039,38
4,7432,95.7463,-0.436443,-0.000673588,0,0,0,0,-0.002284039,38
4,7442,95.8206,-0.421721,-0.000620835,0,0,0,0,-0.002284039,38
4,7452,95.8949,-0.406999,-0.000560168,0,0,0,0,-0.002284039,38
4,7462,95.9692,-0.39197,-0.00051588,0,0,0,0,-0.002284039,38
4,7472,96.0435,-0.377248,-0.000457238,0,0,0,0,-0.002284039,38
4,7482,96.1179,-0.362527,-0.000401908,0,0,0,0,-0.002284039,38
4,7492,96.1922,-0.347805,-0.000351731,0,0,0,0,-0.002284039,38
4,7502,96.2665,-0.333083,-0.000308853,0,0,0,0,-0.002284039,38
4,7512,96.3408,-0.317747,-0.000259289,0,0,0,0,-0.002284039,38
4,7522,96.4151,-0.302719,-0.000219786,0,0,0,0,-0.002284039,38
4,7532,96.4895,-0.288304,-0.000179116,0,0,0,0,-0.002284039,38
4,7542,96.5638,-0.273275,-0.000140655,0,0,0,0,-0.002284039,38
4,7552,96.6381,-0.258246,-0.000101305,0,0,0,0,-0.002284039,38
4,7562,96.7124,-0.243831,-6.46966e-05,0,0,0,0,-0.002284039,38
4,7572,96.7867,-0.228803,-2.78551e-05,0,0,0,0,-0.002284039,38
4,7584,96.8759,-0.210707,1.5174e-05,0,0,0,0,-0.002284039,38
4,7594,96.9502,-0.195678,4.57054e-05,0,0,0,0,-0.002284039,38
4,7604,97.0246,-0.181263,7.18245e-05,0,0,0,0,-0.002284039,38
4,7614,97.0989,-0.166541,9.19935e-05,0,0,0,0,-0.002284039,38
4,7624,97.1732,-0.151513,0.000109053,0,0,0,0,-0.002284039,38
4,7634,97.2475,-0.136484,0.000121818,0,0,0,0,-0.002284039,38
4,7644,97.3218,-0.121149,0.000141956,0,0,0,0,-0.002284039,38
4,7654,97.3962,-0.106734,0.000167437,0,0,0,0,-0.002284039,38
4,7664,97.4705,-0.0920116,0.000207334,0,0,0,0,-0.002284039,38
4,7674,97.5448,-0.0772897,0.000267325,0,0,0,0,-0.002284039,38
4,7684,97.6191,-0.0625678,0.000340689,0,0,0,0,-0.002284039,38
4,7694,97.6934,-0.0472325,0.000424482,0,0,0,0,-0.002284039,38
4,7704,97.7678,-0.0325106,0.000517475,0,0,0,0,-0.002284039,38
4,7714,97.8421,-0.0177887,0.000611204,0,0,0,0,-0.002284039,38
4,7725,97.9238,-0.00183994,0.000723643,0,0,0,0,-0.002284039,38
4,7735,97.9982,0.0134954,0.000825838,0,0,0,0,-0.002284039,38
4,7745,98.0725,0.0279106,0.000920917,0,0,0,0,-0.002284039,38
4,7755,98.1468,0.0432459,0.00101747,0,0,0,0,-0.002284039,38
4,7765,98.2211,0.0576611,0.0010812,0,0,0,0,-0.002284039,38
4,7776,98.3029,0.0742232,0.00112156,0,0,0,0,-0.002284039,38
4,7786,98.3772,0.0895585,0.00112396,0,0,0,0,-0.002284039,38
4,7796,98.4515,0.104894,0.00108789,0,0,0,0,-0.002284039,38
4,7806,98.5258,0.118696,0.0010298,0,0,0,0,-0.002284039,38
4,7816,98.6002,0.133724,0.000974345,0,0,0,0,-0.002284039,38
4,7827,98.6819,0.14998,0.00090368,0,0,0,0,-0.002284039,38
4,7837,98.7562,0.165622,0.000852337,0,0,0,0,-0.002284039,38
4,7847,98.8305,0.179423,0.000825654,0,0,0,0,-0.002284039,38
4,7857,98.9049,0.194759,0.000810502,0,0,0,0,-0.002284039,38
4,7867,98.9792,0.209787,0.000807312,0,0,0,0,-0.002284039,38
4,7877,99.0535,0.224509,0.000817925,0,0,0,0,-0.002284039,38
4,7888,99.1353,0.240765,0.000831236,0,0,0,0,-0.002284039,38
4,7898,99.2096,0.255793,0.000855036,0,0,0,0,-0.002284039,38
4,7908,99.2839,0.270515,0.000877487,0,0,0,0,-0.002284039,38
4,7918,99.3582,0.285851,0.000901594,0,0,0,0,-0.002284039,38
4,7928,99.4325,0.299959,0.000922818,0,0,0,0,-0.002284039,38
4,7939,99.5143,0.316521,0.000950912,0,0,0,0,-0.002284039,38
4,7949,99.5886,0.33155,0.000971032,0,0,0,0,-0.002284039,38
4,7959,99.6629,0.346578,0.000989557,0,0,0,0,-0.002284039,38
4,7969,99.7372,0.360994,0.00100679,0,0,0,0,-0.002284039,38
4,7979,99.8116,0.375409,0.00101857,0,0,0,0,-0.002284039,38
4,7990,99.8933,0.392278,0.00104225,0,0,0,0,-0.002284039,38
4,7995,99.9305,0.399639,0.00105323,0,0,0,0,-0.002284039,38